Timestamp,acc_x,acc_y,acc_z,gyro_x,gyro_y,gyro_z,magn_x,magn_y,magn_z,acc_diff_x,acc_diff_y,acc_diff_z,acc_ma_x,acc_ma_y,acc_ma_z,Id,Time,gesture_id
303288,-8.272284,9.456773,-7.437159,112.770004,73.57,18.690001,-6.865108,13.117291,188.117538,,,,,,,0,0.0,59
303308,-4.570455,11.629534,-6.860467,40.599998,82.949997,37.869999,-5.71153,12.406665,189.385696,3.701829000000001,2.1727609999999995,0.5766920000000004,-6.421369500000001,10.543153499999999,-7.1488130000000005,1,0.02,59
303328,-1.636749,4.158874,-5.058608,-26.6,77.489998,32.549999,-4.793927,10.405005,190.14621,2.933706,-7.47066,1.8018589999999994,-3.103602,7.894204,-5.9595375,2,0.04,59
303348,-0.815982,-0.729837,-3.886083,-7.42,54.389999,19.74,-1.894517,10.192225,191.490936,0.820767,-4.888711,1.1725250000000003,-1.2263655,1.7145185,-4.4723455,3,0.06,59
303368,-3.895654,-0.007179,-0.492939,61.529999,16.799999,10.43,-1.624684,12.530741,191.483109,-3.079672,0.7226579999999999,3.3931440000000004,-2.355818,-0.368508,-2.189511,4,0.08,59
303388,-4.678135,-0.734623,-3.441002,99.330002,-11.27,1.33,-1.399878,12.219501,190.865692,-0.7824810000000002,-0.727444,-2.9480630000000003,-4.2868945,-0.37090100000000004,-1.9669705,5,0.1,59
303408,-4.170839,3.163424,-5.94877,125.580002,-44.869999,19.530001,-0.957076,13.755075,192.536789,0.5072960000000002,3.898047,-2.5077679999999996,-4.424486999999999,1.2144005,-4.694886,6,0.12,59
303428,-4.864782,5.762123,-7.214618,120.610001,-67.620003,29.82,-1.720979,14.669957,191.722778,-0.693943,2.598699,-1.265848,-4.5178104999999995,4.4627735,-6.581694,7,0.14,59
303448,-4.59199,4.249805,-7.044722,70.489998,-82.599998,22.75,-0.955866,10.55549,190.988297,0.2727919999999999,-1.5123179999999996,0.1698959999999996,-4.728386,5.0059640000000005,-7.12967,8,0.16,59
303468,-4.843246,5.338578,-10.705871,-2.03,-61.529999,17.85,-2.50679,12.660169,189.829727,-0.2512559999999997,1.0887729999999998,-3.661149,-4.717618,4.7941915,-8.875296500000001,9,0.18,59
303488,-6.190453,4.704457,-7.580733,-49.84,-45.779999,17.290001,-1.21025,9.540365,191.090424,-1.347207,-0.6341210000000004,3.1251379999999997,-5.516849499999999,5.0215175,-9.143302,10,0.2,59
303508,-5.886554,6.448887,-6.161738,-78.260002,-43.400002,23.17,-1.337441,9.032803,191.141495,0.3038989999999995,1.7444300000000004,1.4189950000000007,-6.0385035,5.576672,-6.8712355,11,0.22,59
303528,-6.45128,6.951398,-12.629769,-77.840004,-22.610001,34.93,-3.460431,11.734184,187.569183,-0.5647259999999994,0.5025110000000002,-6.468031,-6.168917,6.7001425,-9.3957535,12,0.24,59
303548,-8.076065,2.127295,-5.678371,-37.240002,-28.84,41.02,-2.840809,11.908065,188.717346,-1.6247850000000001,-4.824103,6.951397999999999,-7.2636725,4.539346500000001,-9.15407,13,0.26,59
303568,-6.147381,3.314178,-6.092344,-8.33,-29.889999,39.900002,-3.077106,14.857161,188.260406,1.9286839999999996,1.186883,-0.4139729999999995,-7.111723,2.7207365,-5.8853575,14,0.28,59
303588,-5.235683,4.962892,-7.394086,-3.57,-26.880001,38.990002,-1.639566,16.488022,189.941727,0.9116980000000003,1.648714,-1.301742,-5.6915320000000005,4.138535,-6.743214999999999,15,0.3,59
303608,-5.099287,5.630513,-6.010985,-9.52,-25.969999,35.91,-5.198025,14.918703,185.481796,0.13639599999999952,0.6676209999999996,1.383101,-5.167485,5.2967025,-6.7025355,16,0.32,59
303628,-5.008357,5.285934,-6.637927,-11.69,-24.290001,34.09,-5.503356,14.452419,186.382492,0.09093000000000018,-0.3445789999999995,-0.6269420000000006,-5.053822,5.4582235,-6.324456,17,0.34,59
303648,-5.367293,4.986821,-6.099523,-12.46,-21.84,27.16,-7.461934,16.908625,186.550644,-0.3589359999999999,-0.2991130000000002,0.5384040000000008,-5.187825,5.1363775,-6.3687249999999995,18,0.36,59
303668,-5.687943,4.869568,-6.221561,-14.77,-17.08,22.190001,-6.440578,19.929573,187.780243,-0.32064999999999966,-0.11725299999999983,-0.12203800000000076,-5.527618,4.9281945,-6.1605419999999995,19,0.38,59
303688,-5.862625,4.840853,-5.728622,-15.54,-12.39,17.15,-6.017154,16.661308,186.497116,-0.17468200000000067,-0.028715000000000046,0.4929390000000007,-5.775284,4.8552105,-5.9750914999999996,20,0.4,59
303708,-6.027736,4.749923,-6.049272,-13.86,-9.31,12.74,-8.550437,17.073385,184.904907,-0.16511099999999956,-0.09093000000000018,-0.32065000000000055,-5.9451805,4.795388,-5.888947,21,0.42,59
303728,-6.075593,4.51781,-6.300527,-12.46,-8.47,6.37,-8.777314,20.024464,184.728622,-0.047856999999999594,-0.232113,-0.25125499999999956,-6.051664499999999,4.6338665,-6.1748995,22,0.44,59
303748,-6.149774,4.996392,-6.489567,-19.879999,-10.01,0.49,-6.848663,20.001228,187.935867,-0.07418100000000027,0.4785820000000003,-0.18904000000000032,-6.112683499999999,4.7571010000000005,-6.395047,23,0.46,59
303768,-6.183275,4.991606,-6.252669,-31.639999,-14.91,-4.69,-7.70765,19.855738,185.813034,-0.033501000000000225,-0.004786000000000179,0.23689800000000005,-6.1665244999999995,4.9939990000000005,-6.371118,24,0.48,59
303788,-6.075593,5.022714,-5.788445,-37.799999,-19.32,-7.56,-9.206876,17.451321,184.976303,0.1076820000000005,0.03110799999999969,0.46422399999999975,-6.129434,5.00716,-6.020557,25,0.5,59
303808,-5.977484,5.190217,-5.786052,-35.07,-24.43,-8.75,-5.993605,16.666264,187.198776,0.098109,0.16750299999999996,0.0023930000000005336,-6.026538499999999,5.1064655,-5.7872485000000005,26,0.52,59
303828,-6.003807,4.867175,-5.754944,-20.58,-33.18,-10.15,-7.021203,21.08404,187.42804,-0.02632300000000054,-0.32304200000000005,0.03110799999999969,-5.990645499999999,5.028696,-5.770498,27,0.54,59
303848,-5.89134,4.721208,-6.05645,3.78,-44.310001,-13.58,-9.160639,16.901485,184.037415,0.11246700000000054,-0.14596699999999974,-0.30150599999999983,-5.9475735,4.7941915,-5.905697,28,0.56,59
303868,-5.879375,5.005964,-5.680764,26.950001,-52.639999,-19.460001,-8.744346,20.031403,185.710938,0.011965000000000003,0.2847559999999998,0.37568599999999996,-5.8853575,4.863586,-5.868607,29,0.58,59
303888,-6.121059,5.458223,-5.427115,37.029999,-56.139999,-26.32,-10.503416,20.571123,183.715607,-0.24168400000000023,0.45225900000000063,0.25364900000000024,-6.000216999999999,5.2320934999999995,-5.5539395,30,0.6,59
303908,-6.436923,5.343364,-4.943748,35.700001,-55.369999,-34.299999,-9.309629,17.989256,184.231232,-0.31586400000000037,-0.11485900000000004,0.48336699999999944,-6.2789909999999995,5.400793500000001,-5.1854315,31,0.62,59
303928,-6.195239,5.575476,-5.070572,29.82,-49.0,-40.25,-12.250566,18.752861,183.965729,0.24168400000000023,0.23211199999999987,-0.12682400000000005,-6.3160810000000005,5.45942,-5.007160000000001,32,0.64,59
303948,-5.824338,5.616155,-4.606348,25.549999,-41.720001,-41.439999,-12.573848,19.323154,182.807327,0.3709009999999999,0.04067899999999991,0.46422400000000064,-6.0097885,5.5958155000000005,-4.8384599999999995,33,0.66,59
303968,-5.994235,4.687707,-5.151931,25.690001,-34.16,-40.880001,-15.518284,16.886179,180.853012,-0.16989699999999974,-0.9284480000000004,-0.5455830000000006,-5.9092865,5.151930999999999,-4.8791395,34,0.68,59
303988,-6.984899,3.522361,-4.714029,33.389999,-29.4,-39.34,-13.985768,15.057408,182.621353,-0.9906640000000007,-1.1653459999999995,0.43790200000000024,-6.489567,4.105034,-4.932980000000001,35,0.7,59
304008,-7.705164,2.969599,-4.694886,36.610001,-22.33,-36.68,-11.814223,18.687155,184.6521,-0.7202649999999995,-0.552762,0.019142999999999688,-7.3450315,3.2459800000000003,-4.7044575,36,0.72,59
304028,-7.56159,3.417073,-4.658992,27.02,-6.44,-31.08,-13.561454,12.829685,179.840454,0.1435740000000001,0.4474739999999997,0.03589400000000076,-7.633376999999999,3.193336,-4.676939,37,0.74,59
304048,-7.145224,4.539347,-4.845639,19.530001,5.88,-28.91,-13.681756,14.203276,182.047348,0.416366,1.1222740000000004,-0.18664700000000067,-7.353407,3.97821,-4.7523155,38,0.76,59
304068,-7.164367,4.307235,-5.223718,9.8,11.13,-36.889999,-14.221744,13.766376,182.113708,-0.019143000000000576,-0.23211199999999987,-0.3780789999999996,-7.1547955000000005,4.423291000000001,-5.0346785,39,0.78,59
304088,-7.568769,3.84301,-5.415151,5.32,7.49,-41.860001,-14.986966,13.360841,181.626389,-0.40440199999999926,-0.46422500000000033,-0.19143299999999996,-7.366568,4.075122500000001,-5.3194345,40,0.8,59
304108,-7.863096,2.835596,-5.539582,8.12,-1.33,-39.619999,-12.776963,13.519059,182.060181,-0.294327,-1.0074140000000003,-0.1244310000000004,-7.715932499999999,3.339303,-5.4773665000000005,41,0.82,59
304128,-7.690806,2.720737,-5.446259,11.9,-7.42,-30.1,-12.697758,12.976165,182.103607,0.1722899999999994,-0.1148589999999996,0.09332299999999982,-7.776951,2.7781665,-5.4929205,42,0.84,59
304148,-7.640555,2.964813,-5.156717,12.04,-9.94,-19.389999,-15.448175,12.101174,180.565063,0.05025100000000027,0.24407599999999974,0.28954199999999997,-7.665680500000001,2.8427750000000005,-5.301488000000001,43,0.86,59
304168,-7.415622,3.07728,-4.802567,10.01,-7.91,-11.76,-13.307529,13.084141,182.407196,0.22493300000000005,0.1124670000000001,0.35415000000000063,-7.5280885,3.0210465000000006,-4.979642,44,0.88,59
304188,-7.425194,3.165817,-4.898283,7.42,-0.98,-7.35,-13.548214,11.792117,181.759216,-0.009572000000000358,0.08853700000000009,-0.09571600000000036,-7.420408,3.1215485000000003,-4.8504249999999995,45,0.9,59
304208,-7.195475,3.642006,-4.840853,3.36,7.84,-2.66,-13.777729,12.102365,182.236313,0.22971900000000023,0.47618899999999975,0.05743000000000009,-7.3103345,3.4039115000000004,-4.869568,46,0.92,59
304228,-7.377336,3.464931,-5.195004,-2.03,13.37,1.19,-11.758784,9.0993,181.550262,-0.1818609999999996,-0.17707499999999987,-0.3541509999999999,-7.2864055,3.5534685,-5.0179285,47,0.94,59
304248,-7.422801,3.405108,-5.314649,-7.63,15.4,5.74,-13.791859,12.09939,181.815323,-0.04546500000000009,-0.05982300000000018,-0.11964500000000022,-7.4000685,3.4350195,-5.2548265,48,0.96,59
304268,-7.499374,3.027029,-5.266791,-13.440001,15.82,12.11,-14.056092,10.80241,180.465698,-0.07657300000000067,-0.3780789999999996,0.04785800000000062,-7.4610875,3.2160685000000004,-5.29072,49,0.98,59
304288,-7.365371,3.216069,-5.369686,-17.290001,17.85,19.25,-13.471081,13.889064,181.008942,0.13400300000000076,0.18903999999999987,-0.10289500000000018,-7.4323725,3.121549000000001,-5.3182385,50,1.0,59
304308,-7.264869,3.249569,-5.10168,-17.219999,20.58,24.639999,-12.511089,11.896326,183.032425,0.10050199999999965,0.033500000000000085,0.26800599999999974,-7.31512,3.2328190000000006,-5.235683,51,1.02,59
304328,-7.066257,3.807117,-5.163896,-15.190001,24.15,30.030001,-10.060079,9.106438,184.063492,0.1986119999999998,0.5575479999999997,-0.06221600000000027,-7.165563000000001,3.5283430000000005,-5.132788,52,1.04,59
304348,-7.056686,3.649185,-5.264398,-11.97,25.549999,32.830002,-13.852118,17.166252,183.555023,0.009571000000000218,-0.15793199999999974,-0.10050199999999965,-7.0614715,3.7281510000000004,-5.2141470000000005,53,1.06,59
304368,-7.233761,3.675507,-5.592226,-6.16,22.889999,34.720001,-13.079763,11.173605,181.085693,-0.17707500000000032,0.026321999999999957,-0.32782800000000023,-7.1452235,3.6623460000000003,-5.428312,54,1.08,59
304388,-7.087794,3.642006,-5.75973,1.54,17.360001,37.029999,-10.842282,14.817228,185.08107,0.14596700000000062,-0.033501000000000225,-0.1675040000000001,-7.1607775,3.6587565000000004,-5.675978000000001,55,1.1,59
304408,-7.18351,3.965049,-5.726229,6.86,11.48,37.310001,-11.550099,15.464132,184.779922,-0.09571600000000036,0.3230430000000002,0.033501000000000225,-7.135652,3.8035275000000004,-5.742979500000001,56,1.12,59
304428,-7.004042,4.496274,-5.81716,6.3,8.26,33.110001,-11.775334,15.495499,184.226242,0.17946799999999996,0.5312249999999996,-0.09093100000000032,-7.093776,4.2306615,-5.771694500000001,57,1.14,59
304448,-6.707321,4.802567,-5.805195,0.91,7.21,25.41,-9.499826,15.387721,185.453568,0.2967209999999998,0.30629300000000015,0.011965000000000003,-6.8556815,4.6494205,-5.8111775,58,1.16,59
304468,-6.56614,5.106466,-5.391222,-9.87,8.12,16.24,-9.998285,14.399997,184.440704,0.14118100000000045,0.30389900000000036,0.41397300000000037,-6.6367305000000005,4.9545165,-5.5982085,59,1.18,59
304488,-6.276598,5.257219,-5.398401,-23.59,11.34,10.64,-12.648022,15.626909,182.853531,0.28954199999999997,0.15075299999999991,-0.007178999999999824,-6.421369,5.1818425,-5.394811499999999,60,1.2,59
304508,-6.214382,4.544132,-5.130395,-26.530001,14.21,8.61,-8.844598,18.209372,186.930664,0.06221600000000027,-0.7130869999999998,0.26800599999999974,-6.24549,4.9006755,-5.264398,61,1.22,59
304528,-6.281384,4.096659,-5.204575,-14.07,15.89,8.05,-14.648989,18.074194,181.758713,-0.06700200000000045,-0.44747300000000045,-0.07418000000000013,-6.247883,4.3203955,-5.167485,62,1.24,59
304548,-6.453673,4.283306,-5.211754,-1.19,17.99,7.21,-11.89386,18.950174,183.437576,-0.17228900000000014,0.18664699999999979,-0.007178999999999824,-6.367528500000001,4.189982499999999,-5.2081645000000005,63,1.26,59
304568,-6.645106,4.692493,-5.503689,4.83,18.620001,7.42,-10.346325,18.164921,184.129135,-0.19143299999999996,0.4091870000000002,-0.2919349999999996,-6.5493895,4.487899499999999,-5.3577215,64,1.28,59
304588,-6.50871,4.941355,-5.687943,-0.07,18.549999,7.91,-10.358706,19.762234,184.552551,0.1363960000000004,0.24886199999999992,-0.18425400000000014,-6.5769079999999995,4.816924,-5.595815999999999,65,1.3,59
304608,-6.391458,4.745137,-5.709479,-7.42,17.639999,7.91,-10.529603,17.925335,183.667328,0.11725199999999969,-0.196218,-0.02153600000000022,-6.450084,4.843246,-5.698710999999999,66,1.32,59
304628,-6.341207,4.623098,-5.577869,-9.17,16.450001,7.63,-9.608609,14.604251,184.894867,0.05025100000000027,-0.12203900000000001,0.13161000000000023,-6.3663325,4.684117499999999,-5.643674,67,1.34,59
304648,-6.22874,4.670957,-5.860232,-6.93,16.24,7.49,-10.242252,18.947399,184.547516,0.11246699999999965,0.047858999999999874,-0.28236300000000014,-6.2849734999999995,4.6470275,-5.7190505,68,1.36,59
304668,-6.295741,4.876747,-5.431901,-1.96,13.09,6.93,-10.036286,18.632196,183.368774,-0.06700099999999942,0.20579000000000036,0.428331,-6.2622405,4.773852,-5.6460665,69,1.38,59
304688,-6.202418,4.89589,-5.941591,1.75,10.92,5.18,-11.046041,17.493393,184.435333,0.09332299999999982,0.019142999999999688,-0.50969,-6.2490795,4.8863185,-5.686745999999999,70,1.4,59
304708,-6.109094,4.905462,-5.64487,1.4,9.45,4.34,-9.857716,18.87079,183.690247,0.09332399999999996,0.009572000000000358,0.2967209999999998,-6.155756,4.900676,-5.7932305,71,1.42,59
304728,-6.195239,4.982035,-5.766909,-3.85,8.54,4.55,-10.954777,19.593311,184.106033,-0.08614500000000014,0.07657299999999978,-0.12203900000000001,-6.1521665,4.9437485,-5.7058895,72,1.44,59
304748,-6.204811,4.804959,-5.649656,-6.72,7.56,4.76,-8.384679,18.629421,184.478699,-0.009572000000000358,-0.17707599999999957,0.11725299999999983,-6.200025,4.893497,-5.7082825,73,1.46,59
304768,-6.200025,4.888711,-5.857839,-8.33,6.16,4.62,-8.895086,19.518883,185.060349,0.004786000000000179,0.0837519999999996,-0.208183,-6.202418,4.8468350000000004,-5.7537475,74,1.48,59
304788,-6.061236,4.915033,-5.625727,-7.49,4.62,4.69,-9.989079,23.162111,185.993866,0.13878900000000005,0.0263220000000004,0.23211199999999987,-6.1306305000000005,4.901872,-5.741783,75,1.5,59
304808,-6.025342,4.89589,-5.699907,-5.81,3.43,4.34,-8.802182,18.699091,184.353668,0.03589399999999987,-0.019143000000000576,-0.07417999999999925,-6.043289,4.9054614999999995,-5.662817,76,1.52,59
304828,-5.932019,5.056215,-5.750158,-6.58,2.45,5.25,-9.196568,18.493845,183.759171,0.09332299999999982,0.16032500000000027,-0.05025100000000027,-5.9786805,4.9760525,-5.725032499999999,77,1.54,59
304848,-5.932019,5.171074,-6.106701,-11.06,3.15,4.41,-9.832848,20.196163,184.065201,0.0,0.11485900000000004,-0.3565430000000003,-5.932019,5.1136444999999995,-5.9284295,78,1.56,59
304868,-6.168917,5.360114,-5.620941,-19.950001,2.66,3.64,-10.62929,21.383976,183.439987,-0.23689800000000005,0.18904000000000032,0.48575999999999997,-6.050468,5.265594,-5.863821,79,1.58,59
304888,-5.970306,6.168917,-5.903304,-36.400002,5.39,1.75,-8.252346,19.417847,185.739059,0.19861100000000054,0.8088030000000002,-0.28236300000000014,-6.069611500000001,5.7645155,-5.7621225,80,1.6,59
304908,-6.537425,4.917426,-5.068179,-55.510002,6.16,-1.82,-8.117374,22.847103,186.346054,-0.5671189999999999,-1.2514910000000006,0.8351250000000006,-6.2538655,5.5431715,-5.4857415,81,1.62,59
304928,-6.075593,5.049036,-5.025107,-57.82,5.95,-0.84,-7.571039,20.365282,186.042633,0.46183200000000024,0.13161000000000023,0.043071999999999555,-6.306509,4.983231,-5.0466429999999995,82,1.64,59
304948,-5.826731,5.343364,-5.192611,-49.420002,8.54,-1.19,-8.977682,21.381201,184.549911,0.24886199999999992,0.29432800000000015,-0.1675040000000001,-5.951162,5.1962,-5.108859000000001,83,1.66,59
304968,-5.55394,6.089951,-5.218933,-49.420002,13.65,-1.12,-8.434735,20.218805,183.77948,0.2727909999999998,0.7465869999999999,-0.026321999999999512,-5.6903355,5.7166575,-5.205772,84,1.68,59
304988,-5.647263,6.118666,-4.824103,-59.709999,19.389999,-1.96,-8.981072,22.700626,184.082901,-0.09332299999999982,0.028715000000000046,0.3948299999999998,-5.6006015,6.1043085,-5.021518,85,1.7,59
305008,-5.707086,5.996628,-4.905462,-76.440002,24.57,-4.2,-10.527287,24.806297,183.064667,-0.059823000000000626,-0.12203799999999987,-0.08135899999999996,-5.6771745,6.057647,-4.8647825000000005,86,1.72,59
305028,-6.02295,5.652049,-4.613527,-82.389999,27.51,-3.08,-7.247191,25.075663,185.753967,-0.3158639999999995,-0.3445790000000004,0.2919349999999996,-5.865018,5.8243385,-4.759494500000001,87,1.74,59
305048,-5.750158,5.769301,-4.828888,-74.480003,28.42,0.0,-8.526642,26.59914,184.21019,0.2727919999999999,0.11725199999999969,-0.2153609999999997,-5.886554,5.710675,-4.7212075,88,1.76,59
305068,-5.656835,6.338813,-4.802567,-66.360001,26.67,3.57,-8.39945,27.106707,184.159119,0.09332299999999982,0.5695120000000005,0.02632100000000026,-5.7034965,6.054057,-4.8157274999999995,89,1.78,59
305088,-5.845874,6.207203,-4.828888,-66.849998,24.710001,5.95,-8.766007,26.627533,183.235519,-0.18903900000000018,-0.13161000000000023,-0.02632100000000026,-5.7513545,6.273008,-4.8157274999999995,90,1.8,59
305108,-5.865018,6.307706,-4.448416,-67.690002,21.84,9.52,-6.554686,28.106167,183.342636,-0.019143999999999828,0.10050299999999979,0.38047200000000014,-5.855446000000001,6.2574545,-4.638652,91,1.82,59
305127,-5.821945,6.432137,-4.402951,-65.379997,20.790001,14.14,-6.48961,27.560299,182.965057,0.043072999999999695,0.1244310000000004,0.04546500000000009,-5.8434815,6.3699215,-4.4256835,92,1.84,59
305147,-6.142595,5.845874,-3.73533,-46.830002,18.690001,17.360001,-8.380045,32.391342,183.273361,-0.32064999999999966,-0.5862629999999998,0.667621,-5.98227,6.1390055,-4.0691405,93,1.86,59
305167,-6.11388,6.006199,-3.113173,-18.129999,15.26,22.610001,-7.171239,30.852991,182.712189,0.028715000000000046,0.16032499999999938,0.6221569999999996,-6.1282375,5.9260365,-3.4242515,94,1.88,59
305187,-6.453673,5.994235,-2.833203,8.54,11.76,26.110001,-9.12126,32.751434,180.818817,-0.33979300000000023,-0.011963999999999864,0.27997000000000005,-6.2837765,6.000216999999999,-2.9731880000000004,95,1.9,59
305207,-7.552018,5.652049,-2.792524,34.93,7.98,24.92,-5.368002,32.403278,182.97493,-1.0983450000000001,-0.3421859999999999,0.040679000000000354,-7.0028455,5.823142,-2.8128634999999997,96,1.92,59
305227,-8.159817,6.101916,-1.579319,64.260002,-5.88,28.98,-5.604867,30.071703,183.965057,-0.607799,0.44986700000000024,1.2132049999999999,-7.8559175,5.8769825,-2.1859215,97,1.94,59
305247,-4.343128,6.278991,-1.687,92.82,-23.17,57.82,-6.235118,33.095428,184.084732,3.816689,0.17707500000000032,-0.10768100000000014,-6.2514725,6.1904535,-1.6331595,98,1.96,59
305267,-37.506443,17.980312,0.579084,139.580002,10.99,-14.63,-4.11463,32.754013,185.69223,-33.163315,11.701321,2.266084,-20.9247855,12.129651500000001,-0.553958,99,1.98,59
305287,-3.426644,9.530953,-3.692257,55.299999,-2.52,38.009998,-3.586272,30.827971,187.169693,34.079798999999994,-8.449359000000001,-4.2713410000000005,-20.4665435,13.7556325,-1.5565864999999999,100,2.0,59
305307,-11.521852,8.420644,-6.310099,26.809999,20.65,72.239998,-9.256148,33.361378,185.273605,-8.095208000000001,-1.1103090000000009,-2.617842,-7.474248,8.9757985,-5.001178,101,2.02,59
305327,-9.782208,7.061472,-6.006199,28.98,37.170002,84.699997,-5.232417,26.871481,187.32048,1.7396440000000002,-1.3591719999999992,0.3039000000000005,-10.65203,7.741058,-6.158149,102,2.04,59
305347,-8.135887,5.443866,-4.879139,45.709999,44.380001,94.010002,-5.395537,27.956278,187.093323,1.6463210000000004,-1.6176060000000003,1.1270599999999993,-8.9590475,6.252669,-5.442669,103,2.06,59
305367,-8.114351,4.142124,-3.728151,96.739998,49.420002,88.480003,-5.876368,30.172106,188.190262,0.02153600000000111,-1.301742,1.1509880000000003,-8.125119,4.7929949999999995,-4.303645,104,2.08,59
305387,-5.888947,3.668328,-3.785581,166.389999,55.860001,75.040001,-3.602178,28.743912,189.744263,2.2254039999999993,-0.4737960000000001,-0.05743000000000009,-7.001649,3.905226,-3.756866,105,2.1,59
305407,-5.922448,5.819552,-5.946377,197.050003,48.509998,59.920002,-3.003925,30.792995,192.206284,-0.033501000000000225,2.151224,-2.160796,-5.9056975000000005,4.74394,-4.865979,106,2.12,59
305427,-5.022714,7.128473,-7.25769,174.509995,52.779999,38.080002,-2.443029,28.594021,193.494949,0.8997340000000005,1.3089209999999998,-1.3113130000000002,-5.472581,6.4740125,-6.6020335,107,2.14,59
305447,2.194297,2.445552,-8.339285,104.860001,82.040001,-11.27,-1.75669,25.302319,193.888153,7.217010999999999,-4.6829209999999994,-1.081595,-1.4142084999999998,4.7870124999999994,-7.7984875,108,2.16,59
305467,-1.940648,2.670485,-11.148559,92.68,123.690002,-91.489998,0.736706,22.521355,196.18219,-4.134945,0.22493300000000005,-2.8092740000000003,0.12682450000000012,2.5580185,-9.743922000000001,109,2.18,59
305487,-8.401501,3.122745,-12.313905,20.790001,97.650002,-111.300003,-0.215185,23.19566,194.766052,-6.460853,0.4522599999999999,-1.1653459999999995,-5.1710745,2.896615,-11.731232,110,2.2,59
305507,-2.112938,3.639613,-9.195946,-69.370003,85.190002,-123.340004,2.869575,20.582624,197.366272,6.288563,0.5168680000000001,3.117959000000001,-5.2572195,3.3811790000000004,-10.754925499999999,111,2.22,59
305527,-3.086851,6.826967,-10.311041,-123.480003,121.029999,-143.360001,4.812814,21.32303,198.325623,-0.9739129999999996,3.1873539999999996,-1.1150950000000002,-2.5998945,5.23329,-9.7534935,112,2.24,59
305547,-3.402715,8.837009,-11.457244,-189.770004,156.380005,-144.690002,4.649693,22.407825,198.09845,-0.31586400000000037,2.0100420000000003,-1.1462029999999999,-3.244783,7.831988,-10.8841425,113,2.26,59
305567,-3.20889,7.475445,-9.45438,-239.119995,199.990005,-151.130005,6.331768,24.771957,198.225891,0.19382500000000036,-1.3615640000000004,2.002863999999999,-3.3058025,8.156227,-10.455812,114,2.28,59
305587,-4.051193,10.210539,-10.519224,-255.149994,196.490005,-126.139999,7.666123,26.660883,197.991058,-0.8423029999999998,2.735094000000001,-1.064843999999999,-3.6300415,8.842991999999999,-9.986802,115,2.3,59
305607,-0.756159,11.225132,-7.458694,-259.980011,209.369995,-92.889999,9.92118,29.949652,195.194473,3.2950339999999994,1.0145929999999996,3.060529999999999,-2.403676,10.7178355,-8.988959,116,2.32,59
305627,1.414209,11.380671,-1.732466,-180.529999,263.619995,-54.529999,13.510134,34.366673,194.83194,2.170368,0.1555389999999992,5.726228000000001,0.329025,11.302901499999999,-4.59558,117,2.34,59
305647,-3.070101,14.347877,-3.613291,-95.340004,226.100006,-31.639999,17.477594,37.385677,193.798477,-4.484310000000001,2.967206000000001,-1.8808249999999997,-0.8279460000000001,12.864273999999998,-2.6728785,118,2.36,59
305667,-1.308921,11.993256,-1.734858,-34.580002,217.630005,2.38,20.269569,38.190647,190.417831,1.7611800000000002,-2.354621,1.8784329999999998,-2.189511,13.1705665,-2.6740744999999997,119,2.38,59
305687,0.162718,12.931275,-1.62957,36.68,234.220001,39.830002,22.080154,42.382751,190.167511,1.471639,0.9380189999999988,0.10528800000000005,-0.5731015,12.462265499999999,-1.682214,120,2.4,59
305707,2.538876,11.136594,-0.423545,58.310001,240.589996,66.010002,25.49732,43.922337,190.417542,2.376158,-1.7946809999999989,1.206025,1.350797,12.033934499999999,-1.0265575,121,2.42,59
305727,1.533854,7.506553,1.148596,87.919998,224.070007,82.809998,30.869997,40.085007,189.981689,-1.005022,-3.6300410000000003,1.572141,2.036365,9.3215735,0.36252549999999995,122,2.44,59
305747,1.880826,6.999256,1.466853,119.07,212.660004,103.32,32.900566,39.444885,187.751831,0.34697200000000006,-0.5072970000000003,0.318257,1.70734,7.2529045,1.3077245,123,2.46,59
305767,2.031579,4.802567,1.445316,139.229996,208.529999,110.529999,38.090393,35.647839,188.025269,0.1507529999999997,-2.196689,-0.021536999999999917,1.9562024999999998,5.900911499999999,1.4560845,124,2.48,59
305787,2.053115,4.280912,0.531226,128.660004,208.25,108.150002,37.569706,35.975574,185.98407,0.02153600000000022,-0.521655,-0.9140900000000001,2.042347,4.5417394999999985,0.988271,125,2.5,59
305807,2.084223,3.239998,-2.031579,73.709999,216.440002,100.730003,43.471737,35.772751,186.749695,0.031108000000000136,-1.040914,-2.562805,2.068669,3.760454999999999,-0.7501764999999999,126,2.52,59
305827,2.3283,1.667857,-3.644399,18.27,226.380005,97.230003,49.772327,30.976284,185.857239,0.24407699999999988,-1.572141,-1.6128200000000001,2.2062615,2.453927499999999,-2.837989,127,2.54,59
305847,2.668092,-1.682214,-5.192611,28.559999,227.149994,79.660004,51.814846,28.458973,182.032852,0.3397920000000001,-3.350071,-1.5482120000000004,2.498196,-0.007178500000000976,-4.418505,128,2.56,59
305867,3.469717,0.370901,-6.549389,61.670002,225.75,64.470001,52.025986,28.90543,178.325562,0.801625,2.053115,-1.3567779999999994,3.0689045000000004,-0.655656500000001,-5.871,129,2.58,59
305887,3.704222,2.045936,-7.540053,76.650002,235.059998,51.380001,57.149094,28.573971,179.353973,0.23450499999999996,1.6750350000000003,-0.9906640000000007,3.5869695000000004,1.2084184999999992,-7.044721,130,2.6,59
305907,5.434294,4.130159,-5.963127,46.970001,239.820007,38.990002,59.666527,27.039425,175.84082,1.7300720000000003,2.0842229999999997,1.5769260000000003,4.569258,3.088047499999999,-6.75159,131,2.62,59
305927,6.733644,5.754944,-4.63267,13.16,237.790009,46.48,59.618137,26.189894,170.924225,1.2993499999999996,1.6247850000000001,1.330457,6.083969,4.942551499999999,-5.2978985000000005,132,2.64,59
305947,8.250747,5.958341,-2.725522,21.91,219.660004,59.779999,62.006626,22.547501,166.617722,1.5171030000000005,0.20339699999999983,1.9071480000000003,7.492195499999999,5.8566424999999995,-3.679096,133,2.66,59
305967,9.363449,5.640084,-0.947592,83.93,181.020004,62.369999,64.212379,23.465399,164.24231,1.1127019999999987,-0.318257,1.7779299999999998,8.807098,5.799212499999999,-1.836557,134,2.68,59
305987,10.421115,6.551782,-0.622156,137.270004,150.5,65.169998,65.168579,22.993008,160.787704,1.057666000000001,0.9116980000000003,0.32543599999999995,9.892281999999998,6.095932999999999,-0.7848740000000001,135,2.7,59
306007,10.047821,4.766673,0.45226,169.960007,124.949997,74.129997,65.287239,24.539131,158.958191,-0.37329399999999957,-1.7851090000000003,1.074416,10.234468,5.659227499999999,-0.08494800000000002,136,2.72,59
306027,10.430686,4.682921,0.157932,187.949997,98.139999,80.080002,66.43689,20.348053,157.36644,0.3828649999999989,-0.0837519999999996,-0.29432800000000003,10.2392535,4.724796999999999,0.305096,137,2.74,59
306047,11.378278,4.587205,0.26322,178.149994,77.0,82.669998,65.509003,21.787983,153.983078,0.9475920000000002,-0.09571600000000036,0.10528800000000002,10.904481999999998,4.635062999999999,0.21057599999999999,138,2.76,59
306067,10.382828,2.438373,-0.787267,160.160004,73.290001,74.199997,65.126884,15.465423,151.743378,-0.99545,-2.148832,-1.050487,10.880552999999999,3.512788999999999,-0.2620235,139,2.78,59
306087,10.227289,1.005021,-1.543426,149.940002,59.43,64.610001,65.019424,16.002367,150.857971,-0.1555389999999992,-1.433352,-0.7561589999999999,10.3050585,1.721696999999999,-1.1653465,140,2.8,59
306107,10.555118,-0.624549,-2.452731,167.440002,49.420002,56.07,66.787056,14.904881,150.791763,0.3278289999999995,-1.62957,-0.909305,10.3912035,0.19023599999999907,-1.9980785,141,2.82,59
306127,10.677155,-2.165582,-2.3618,210.490005,38.360001,48.509998,64.394234,15.267749,147.227295,0.12203700000000062,-1.541033,0.09093099999999987,10.6161365,-1.395065500000001,-2.4072655000000003,142,2.84,59
306147,10.96909,-2.983956,-2.316335,257.179993,23.940001,37.869999,68.012947,11.770209,149.94751,0.2919349999999987,-0.8183739999999999,0.04546500000000009,10.8231225,-2.5747690000000008,-2.3390675,143,2.86,59
306167,10.832695,-2.651342,-2.524518,289.029999,12.11,21.98,64.727821,15.739982,147.168579,-0.13639500000000027,0.33261399999999997,-0.208183,10.900892499999998,-2.817649000000001,-2.4204265,144,2.88,59
306187,10.6963,-2.981564,-3.161031,311.98999,4.83,4.97,65.312729,14.306634,146.490021,-0.1363949999999985,-0.330222,-0.6365129999999999,10.7644975,-2.816453000000001,-2.8427745,145,2.9,59
306207,9.763065,-4.328771,-4.175625,337.399994,-3.85,-20.440001,63.904762,14.002136,145.32399,-0.9332350000000016,-1.3472069999999996,-1.0145940000000002,10.2296825,-3.655167500000001,-3.668328,146,2.92,59
306227,9.210303,-2.28762,-3.790366,346.779999,-11.97,-42.700001,65.672394,12.904651,145.257782,-0.5527619999999995,2.0411509999999997,0.385259,9.486683999999999,-3.308195500000001,-3.9829955000000004,147,2.94,59
306247,9.030835,4.03205,-3.158639,295.190002,-10.36,-52.639999,66.587036,12.502289,146.722382,-0.17946799999999996,6.31967,0.6317270000000001,9.120569,0.8722149999999989,-3.4745025,148,2.96,59
306267,10.016713,7.731486,-2.144046,133.630005,-14.98,-59.709999,64.049149,17.433376,146.211639,0.9858779999999996,3.6994360000000004,1.014593,9.523774,5.881767999999999,-2.6513425,149,2.98,59
306287,11.024128,6.085166,-1.531461,-60.060001,-20.299999,-63.98,66.055717,16.027628,145.949005,1.007415,-1.6463200000000002,0.6125849999999999,10.520420499999998,6.908325999999999,-1.8377534999999998,150,3.0,59
306307,10.507259,2.995921,-0.811196,-165.130005,-26.950001,-67.760002,64.415283,17.632673,145.964142,-0.5168689999999998,-3.089245,0.7202649999999999,10.765693499999998,4.540543499999999,-1.1713285,151,3.02,59
306327,9.4137,0.0,2.103366,-137.830002,-52.360001,-61.110001,67.829811,16.531422,146.867538,-1.093558999999999,-2.995921,2.914562,9.960479499999998,1.4979604999999991,0.6460849999999999,152,3.04,59
306347,9.442415,-1.081594,4.022479,-39.619999,-90.090004,-61.880001,65.606995,17.690649,145.686066,0.028715000000000046,-1.081594,1.9191129999999998,9.4280575,-0.5407970000000009,3.0629225,153,3.06,59
306367,7.724308,2.014829,3.189746,20.02,-108.010002,-56.700001,65.768013,18.764896,148.959503,-1.7181070000000007,3.096423,-0.8327329999999997,8.583361499999999,0.46661749999999924,3.6061125,154,3.08,59
306387,7.532875,3.500824,1.299349,25.620001,-122.639999,-52.43,67.090424,22.531006,150.319168,-0.19143299999999996,1.485995,-1.8903969999999999,7.628591499999999,2.7578264999999993,2.2445474999999995,155,3.1,59
306407,7.872668,4.051193,-0.914091,14.7,-125.93,-42.84,64.339546,20.895348,151.449524,0.33979300000000023,0.5503689999999994,-2.2134400000000003,7.702771499999999,3.7760084999999988,0.1926289999999996,156,3.12,59
306427,8.693435,5.293113,-2.158403,-10.78,-122.57,-30.450001,66.011742,22.496826,153.965179,0.8207669999999991,1.2419200000000004,-1.2443119999999999,8.2830515,4.672152999999999,-1.5362470000000004,157,3.14,59
306447,8.602505,6.080379,-3.452966,-49.209999,-115.5,-24.219999,67.123337,21.576353,158.981445,-0.0909299999999984,0.7872659999999998,-1.2945630000000001,8.647969999999997,5.686745999999999,-2.8056845000000004,158,3.16,59
306467,7.662092,7.422801,-3.764045,-105.629997,-106.889999,-23.450001,66.514885,23.004747,158.958344,-0.9404130000000004,1.342422,-0.3110789999999999,8.1322985,6.751589999999998,-3.6085055000000006,159,3.18,59
306487,6.889183,7.331871,-3.091637,-167.509995,-99.889999,-23.52,64.127174,23.167679,160.545273,-0.7729090000000003,-0.09093000000000018,0.6724079999999999,7.275637499999999,7.377335999999999,-3.4278410000000004,160,3.2,59
306507,6.927469,5.151931,-2.479053,-199.430008,-93.169998,-22.540001,63.316143,23.591854,162.167938,0.038286000000000264,-2.1799399999999993,0.612584,6.908325999999999,6.241900999999999,-2.7853450000000004,161,3.22,59
306527,7.24094,4.055979,-1.832968,-181.089996,-95.620003,-22.610001,64.973778,24.910484,163.091507,0.31347099999999983,-1.0959520000000005,0.646085,7.084204499999999,4.603954999999999,-2.1560105000000003,162,3.24,59
306547,6.063629,5.836303,-1.387887,-152.180008,-103.32,-21.91,62.631878,24.243713,162.568451,-1.1773110000000004,1.7803240000000002,0.44508099999999984,6.652284499999999,4.946140999999999,-1.6104275000000006,163,3.26,59
306567,5.613762,6.140202,-1.552997,-138.110001,-115.43,-19.6,62.834103,29.007265,164.81337,-0.44986699999999935,0.30389900000000036,-0.16510999999999987,5.838695499999999,5.9882525,-1.4704420000000005,164,3.28,59
306587,5.008357,5.96552,-2.050722,-112.699997,-127.120003,-16.030001,61.754562,28.413338,166.117172,-0.6054050000000002,-0.17468200000000067,-0.497725,5.311059499999999,6.052860999999999,-1.8018595000000004,165,3.3,59
306607,4.620706,6.432137,-2.261298,-65.870003,-138.809998,-6.51,57.548302,30.703394,164.728882,-0.38765099999999997,0.4666170000000003,-0.2105760000000001,4.814531499999999,6.198828499999999,-2.15601,166,3.32,59
306627,4.0488,7.300763,-2.450338,-15.33,-150.080002,4.97,58.813164,28.416271,168.520554,-0.5719060000000002,0.8686259999999999,-0.18903999999999987,4.334752999999999,6.866449999999999,-2.355818,167,3.34,59
306647,3.347678,7.267262,-2.833203,26.6,-160.649994,16.52,59.082111,29.714241,170.010513,-0.7011219999999998,-0.033501000000000225,-0.38286500000000023,3.698238999999999,7.284012499999999,-2.6417705000000007,168,3.36,59
306667,2.72313,6.530246,-3.682686,68.040001,-168.979996,30.73,59.812584,28.031754,172.511093,-0.6245480000000003,-0.7370159999999997,-0.8494829999999998,3.035403999999999,6.8987539999999985,-3.2579445000000007,169,3.38,59
306687,2.349836,6.429744,-4.74753,105.489998,-172.550003,49.279999,56.360783,28.92415,175.496124,-0.373294,-0.10050199999999965,-1.0648440000000003,2.5364829999999987,6.479994999999999,-4.215108000000001,170,3.4,59
306707,1.347207,6.463245,-5.453437,123.059998,-171.220001,71.330002,55.109882,25.732651,178.583588,-1.0026289999999998,0.03350099999999934,-0.7059069999999998,1.848521499999999,6.446494499999999,-5.1004835,171,3.42,59
306727,0.775302,5.879375,-4.989213,120.400002,-168.139999,94.57,54.448277,25.348927,181.183533,-0.571905,-0.5838700000000001,0.46422399999999975,1.061254499999999,6.171309999999998,-5.221325,172,3.44,59
306747,0.083752,5.314649,-5.113645,99.120003,-167.509995,110.669998,50.940704,22.269169,183.604996,-0.6915500000000001,-0.5647259999999994,-0.12443199999999965,0.4295269999999991,5.597011999999999,-5.051429000000001,173,3.46,59
306767,-1.466853,4.867175,-5.656835,55.369999,-175.0,125.720001,48.932365,21.593834,186.863205,-1.550605,-0.4474740000000006,-0.5431900000000001,-0.6915505000000008,5.090911999999999,-5.3852400000000005,174,3.48,59
306787,-3.031815,5.843482,-8.372786,-13.440001,-183.75,144.690002,50.802181,14.67774,188.989151,-1.564962,0.9763070000000003,-2.7159509999999996,-2.249334000000001,5.355328499999999,-7.0148105,175,3.5,59
306807,-4.185196,4.89589,-13.302176,-134.960007,-205.869995,187.389999,46.313679,15.7458,191.87207,-1.1533810000000004,-0.9475920000000002,-4.92939,-3.6085055000000006,5.369685999999999,-10.837481,176,3.52,59
306827,-8.324927,1.048094,-17.819986,-207.970001,-183.399994,199.710007,42.637424,13.190105,191.583847,-4.139731,-3.8477959999999998,-4.517810000000001,-6.255061500000001,2.971991999999999,-15.561081,177,3.54,59
306847,-7.181117,-2.278049,-20.107607,-153.649994,-147.350006,155.610001,40.447121,13.595599,194.053558,1.1438100000000002,-3.326143,-2.2876210000000015,-7.753022000000001,-0.6149775000000011,-18.9637965,178,3.56,59
306867,-4.931784,0.160325,-14.089443,-59.779999,-50.610001,69.720001,37.398369,18.655479,196.79335,2.249333,2.438374,6.018164000000002,-6.0564505,-1.058862000000001,-17.098525000000002,179,3.58,59
306887,-3.709008,0.887769,-8.691042,5.39,7.7,16.1,34.993919,16.655407,194.77269,1.2227760000000005,0.727444,5.398401,-4.320396000000001,0.5240469999999992,-11.3902425,180,3.6,59
306907,-3.575005,3.467324,-6.219168,-15.82,3.15,0.35,38.522369,16.618488,197.546219,0.13400299999999987,2.579555,2.4718739999999997,-3.6420065,2.177546499999999,-7.455105,181,3.62,59
306927,-2.278049,3.651578,-7.542446,-65.379997,-32.689999,-12.74,38.924107,19.465557,197.627655,1.2969559999999998,0.18425400000000014,-1.3232780000000002,-2.926527,3.5594509999999993,-6.880807,182,3.64,59
306947,-1.373529,4.742744,-10.093287,-81.269997,-58.310001,-17.01,36.901661,19.268044,196.624893,0.9045200000000002,1.0911659999999999,-2.550841,-1.825789,4.1971609999999995,-8.817866500000001,183,3.66,59
306967,0.107681,5.319435,-11.904717,-62.860001,-36.889999,-11.97,36.154846,18.586601,195.527802,1.48121,0.5766910000000003,-1.8114299999999997,-0.632924,5.031089499999999,-10.999002,184,3.68,59
306987,0.339793,5.551547,-9.442415,-26.110001,4.13,-4.27,34.327282,20.510817,197.283005,0.232112,0.23211199999999987,2.4623019999999993,0.22373700000000002,5.435490999999999,-10.673566000000001,185,3.7,59
307007,0.576691,5.302684,-7.992313,-15.75,21.35,10.64,35.652218,22.39776,196.767502,0.23689799999999994,-0.24886300000000006,1.4501020000000002,0.458242,5.427115499999999,-8.717364,186,3.72,59
307027,1.289778,5.008357,-9.049978,-17.360001,29.469999,21.629999,33.956902,21.071198,194.721283,0.7130870000000001,-0.294327,-1.0576649999999992,0.9332345,5.1555205,-8.5211455,187,3.74,59
307047,1.811431,4.154088,-9.612311,-24.360001,49.490002,23.73,34.925453,18.520699,194.683243,0.5216529999999999,-0.8542690000000004,-0.5623330000000006,1.5506045,4.581222499999999,-9.3311445,188,3.76,59
307067,1.064844,4.584812,-8.269891,-22.190001,62.790001,28.07,35.122108,22.723513,194.445633,-0.7465870000000001,0.43072400000000055,1.3424200000000006,1.4381374999999998,4.369449999999999,-8.941101,189,3.78,59
307087,1.375922,4.903069,-7.228975,-21.77,56.490002,24.219999,37.84634,20.952717,195.935898,0.3110780000000002,0.318257,1.0409159999999993,1.220383,4.743940499999999,-7.749433,190,3.8,59
307107,2.203868,4.534561,-7.305548,-18.76,48.509998,11.55,39.053074,22.054205,194.581024,0.8279459999999998,-0.3685080000000003,-0.07657299999999978,1.789895,4.718814999999999,-7.2672615,191,3.82,59
307127,3.230426,4.804959,-7.602269,-12.95,48.02,1.68,37.866955,23.037767,193.501648,1.026558,0.27039800000000014,-0.2967209999999998,2.7171469999999998,4.669759999999999,-7.4539085,192,3.84,59
307147,3.450573,5.003571,-7.217011,-10.78,47.670002,3.01,39.921082,22.402601,191.973434,0.22014699999999987,0.1986119999999998,0.38525799999999943,3.3404995,4.904264999999999,-7.40964,193,3.86,59
307167,3.986585,5.185432,-6.860467,-9.52,44.939999,10.99,39.011574,23.085827,191.820282,0.5360119999999999,0.1818609999999996,0.3565440000000004,3.718579,5.094501499999999,-7.038739,194,3.88,59
307187,4.647027,5.465402,-7.068651,-10.57,42.560001,19.950001,41.123962,24.062845,192.820435,0.6604419999999998,0.2799700000000005,-0.20818400000000015,4.316806,5.325416999999999,-6.9645589999999995,195,3.9,59
307207,4.709243,5.819552,-7.482624,-0.63,42.84,28.630001,42.003567,26.293385,192.509003,0.06221600000000027,0.35414999999999974,-0.41397300000000037,4.678134999999999,5.6424769999999995,-7.2756375,196,3.92,59
307227,4.127767,5.762123,-7.499374,26.110001,44.939999,35.91,41.118824,23.781981,191.509003,-0.5814759999999994,-0.05742899999999995,-0.016750000000000043,4.418505,5.7908374999999985,-7.490999,197,3.94,59
307247,3.369215,5.470188,-7.702771,54.389999,46.34,37.939999,45.514389,23.052916,193.172729,-0.7585520000000003,-0.2919349999999996,-0.20339699999999983,3.7484910000000005,5.6161555,-7.601072500000001,198,3.96,59
307267,2.897812,4.814531,-8.032992,74.129997,42.560001,31.219999,44.141926,20.876184,191.113846,-0.471403,-0.6556570000000006,-0.3302209999999999,3.1335135000000003,5.1423594999999995,-7.867881500000001,199,3.98,59
307287,3.153853,3.917191,-7.671663,70.699997,41.16,26.460001,42.250065,19.866812,190.527023,0.25604099999999974,-0.8973399999999998,0.36132900000000046,3.0258325,4.365860999999999,-7.852327500000001,200,4.0,59
307307,3.536718,3.730544,-7.729093,57.889999,42.0,23.59,46.678169,18.864811,192.001968,0.38286500000000023,-0.18664699999999979,-0.05743000000000009,3.3452855,3.823867499999999,-7.700378000000001,201,4.02,59
307327,3.740115,3.529539,-7.441944,46.48,41.650002,18.9,45.899704,19.496847,189.595886,0.20339699999999983,-0.20100499999999988,0.28714899999999943,3.6384165,3.630041499999999,-7.585518500000001,202,4.04,59
307347,4.304842,3.316571,-7.303155,35.84,38.779999,12.81,46.701286,18.589895,191.532532,0.564727,-0.21296800000000005,0.13878900000000005,4.0224785,3.4230549999999993,-7.372549500000002,203,4.06,59
307367,4.491488,3.443395,-7.118902,28.0,34.23,7.42,47.821037,17.312584,189.476181,0.18664600000000053,0.12682400000000005,0.184253,4.3981650000000005,3.3799829999999993,-7.211028500000001,204,4.08,59
307387,5.120823,3.670721,-7.205046,24.780001,28.07,4.83,48.453926,16.929689,188.70314,0.6293349999999993,0.2273259999999997,-0.086144,4.806155499999999,3.557057999999999,-7.161974000000001,205,4.1,59
307407,5.10168,3.878904,-7.456302,25.690001,23.940001,5.18,49.061062,14.180883,189.052917,-0.019142999999999688,0.208183,-0.2512559999999997,5.1112515,3.774812499999999,-7.330674000000001,206,4.12,59
307427,5.285934,3.902833,-7.48741,27.65,20.93,9.03,46.752258,18.521851,186.893997,0.18425400000000014,0.02392900000000031,-0.03110799999999969,5.193807,3.890868499999999,-7.471856000000001,207,4.14,59
307447,5.302684,3.926762,-7.654913,30.66,19.389999,14.77,51.036404,14.368484,188.65239,0.016750000000000043,0.023928999999999867,-0.16750299999999996,5.294309,3.9147974999999993,-7.5711615000000005,208,4.16,59
307467,5.118431,3.484074,-7.403657,35.139999,16.450001,17.57,50.454891,14.482407,189.797958,-0.184253,-0.44268799999999997,0.2512559999999997,5.2105575,3.705417999999999,-7.529285000000001,209,4.18,59
307487,4.993999,3.321357,-7.530482,37.099998,12.6,17.43,49.655064,16.989649,188.705719,-0.12443200000000054,-0.16271700000000022,-0.1268250000000002,5.056215,3.4027154999999993,-7.467069500000001,210,4.2,59
307507,5.135181,3.163424,-7.870275,35.139999,8.75,14.84,51.694595,15.590837,189.4254,0.14118200000000058,-0.15793299999999988,-0.33979300000000023,5.064589999999999,3.242390499999999,-7.700378500000001,211,4.22,59
307527,5.309863,2.823632,-7.772165,32.970001,5.88,12.39,52.194695,13.658849,190.060883,0.17468199999999978,-0.3397920000000001,0.09811000000000014,5.222522,2.993527999999999,-7.821220000000001,212,4.24,59
307547,5.424723,2.615448,-7.688414,30.73,1.75,10.5,52.051624,11.548023,188.846542,0.11486000000000018,-0.2081839999999997,0.08375100000000035,5.367293,2.7195399999999994,-7.730289500000001,213,4.26,59
307567,5.218933,2.536483,-7.607055,26.880001,-1.82,8.61,52.549652,12.255875,188.688309,-0.20579000000000036,-0.07896500000000017,0.08135899999999996,5.321828,2.5759654999999992,-7.6477345,214,4.28,59
307587,5.135181,2.701593,-7.688414,23.450001,-4.2,7.56,48.714661,15.026093,188.363953,-0.0837519999999996,0.16510999999999987,-0.08135899999999996,5.177057,2.619037999999999,-7.6477345,215,4.3,59
307607,4.941355,2.787738,-7.729093,25.059999,-5.32,7.0,51.33778,10.87352,188.73175,-0.1938260000000005,0.08614500000000014,-0.04067899999999991,5.0382679999999995,2.744665499999999,-7.7087535,216,4.32,59
307627,4.824103,2.725522,-7.717129,23.309999,-5.6,6.86,52.472088,9.879056,188.267502,-0.11725199999999969,-0.06221600000000027,0.011963999999999864,4.882728999999999,2.756629999999999,-7.723111000000001,217,4.34,59
307647,4.795388,2.560412,-7.7267,23.379999,-6.93,6.72,51.719784,12.67608,189.749664,-0.028715000000000046,-0.16510999999999987,-0.009571000000000218,4.8097455,2.6429669999999987,-7.7219145000000005,218,4.36,59
307667,4.857604,2.275656,-8.0306,19.950001,-8.26,6.86,52.902401,8.491942,189.140213,0.06221600000000027,-0.2847559999999998,-0.3038999999999996,4.826496,2.418033999999999,-7.87865,219,4.38,59
307687,4.812138,2.239762,-7.980349,17.360001,-9.24,7.63,50.720798,13.340473,186.930222,-0.04546600000000023,-0.035894000000000315,0.05025099999999938,4.834871,2.2577089999999993,-8.0054745,220,4.4,59
307707,4.78103,2.153617,-8.143066,15.75,-9.24,7.91,50.556786,13.384726,188.200836,-0.03110799999999969,-0.0861449999999997,-0.1627169999999989,4.796583999999999,2.196689499999999,-8.0617075,221,4.42,59
307727,4.718815,2.000471,-8.131102,15.12,-8.12,7.98,50.089977,11.083524,188.496979,-0.06221500000000013,-0.153146,0.011963999999998975,4.7499225,2.077043999999999,-8.137084,222,4.44,59
307747,4.469952,1.789895,-8.080851,16.309999,-6.09,8.26,51.051285,10.411201,190.193771,-0.24886300000000006,-0.2105760000000001,0.050251000000001156,4.594383499999999,1.8951829999999992,-8.1059765,223,4.46,59
307767,4.3862,1.773145,-8.078458,18.9,-5.04,9.94,48.516258,9.22299,187.757141,-0.08375200000000049,-0.016750000000000043,0.0023929999999996454,4.428075999999999,1.781519999999999,-8.0796545,224,4.48,59
307787,4.335949,1.713322,-8.190925,18.48,-3.5,10.5,46.932793,11.600602,186.787369,-0.05025099999999938,-0.05982299999999996,-0.11246700000000054,4.361074499999999,1.7432334999999992,-8.134691499999999,225,4.5,59
307807,4.381415,1.600855,-8.207675,14.77,-1.4,9.52,49.861214,7.433515,190.094452,0.04546599999999934,-0.1124670000000001,-0.016750000000000043,4.358682,1.657088499999999,-8.199300000000001,226,4.52,59
307827,4.570455,1.643928,-8.320142,12.39,-0.07,9.1,47.536533,10.171219,186.67012,0.18904000000000032,0.04307300000000014,-0.11246700000000054,4.475935,1.622391499999999,-8.2639085,227,4.54,59
307847,4.560883,1.524282,-8.123923,13.51,0.49,8.12,47.969376,6.904936,185.667664,-0.009572000000000358,-0.11964600000000014,0.19621900000000103,4.565669,1.5841049999999992,-8.222032500000001,228,4.56,59
307867,4.620706,1.399851,-8.169388,16.17,0.14,6.44,50.50737,6.493851,187.400208,0.059823000000000626,-0.12443099999999996,-0.04546500000000009,4.5907944999999994,1.462066499999999,-8.1466555,229,4.58,59
307887,4.685314,1.490782,-8.099994,20.23,0.0,5.81,51.275982,5.579961,188.354538,0.06460799999999978,0.0909310000000001,0.06939399999999907,4.65301,1.4453164999999992,-8.134691,230,4.6,59
307907,4.869568,1.531461,-8.255533,23.450001,0.63,5.6,49.263847,6.424973,186.134659,0.18425400000000014,0.04067899999999991,-0.1555389999999992,4.777441,1.5111214999999991,-8.177763500000001,231,4.62,59
307927,4.804959,1.639142,-8.31057,25.34,1.96,7.14,46.934433,8.680889,186.409973,-0.06460899999999992,0.10768100000000014,-0.05503700000000045,4.8372635,1.585301499999999,-8.2830515,232,4.64,59
307947,4.800174,1.495568,-8.279462,23.450001,3.57,8.96,50.323204,5.213722,188.436188,-0.004785000000000039,-0.1435740000000001,0.03110799999999969,4.802566499999999,1.5673549999999992,-8.295016,233,4.66,59
307967,4.840853,1.277813,-8.25314,21.210001,4.62,10.29,51.472504,4.781977,190.735123,0.04067899999999991,-0.21775499999999992,0.0263220000000004,4.8205135,1.3866904999999992,-8.266301,234,4.68,59
307987,4.704457,1.385494,-8.193317,17.5,5.74,11.34,48.631386,7.087738,188.078796,-0.1363960000000004,0.10768099999999992,0.05982299999999974,4.772654999999999,1.3316534999999992,-8.223228500000001,235,4.7,59
308006,4.666171,1.179704,-8.119137,12.6,4.97,10.85,48.011765,6.913858,186.930634,-0.038285999999999376,-0.20578999999999992,0.07418000000000013,4.685314,1.2825989999999992,-8.156227000000001,236,4.72,59
308026,4.618313,1.237134,-8.217246,7.91,4.48,10.08,50.467918,4.404834,189.273132,-0.04785800000000062,0.05742999999999987,-0.09810899999999911,4.6422419999999995,1.2084189999999992,-8.168191499999999,237,4.74,59
308046,4.522596,1.095952,-8.114351,4.55,4.55,8.19,49.236774,2.738642,187.584167,-0.09571699999999961,-0.14118199999999992,0.10289500000000018,4.570454499999999,1.166542999999999,-8.1657985,238,4.76,59
308066,4.759494,1.210811,-8.248354,3.01,4.62,6.86,50.595108,4.912397,189.222076,0.23689800000000005,0.11485900000000004,-0.13400300000000165,4.641045,1.1533814999999992,-8.1813525,239,4.78,59
308086,4.886318,1.299349,-8.219639,2.1,4.76,6.37,50.422565,5.99521,188.714249,0.12682400000000005,0.088538,0.028715000000000046,4.822906,1.255079999999999,-8.2339965,240,4.8,59
308106,5.003571,1.323278,-8.080851,0.91,3.92,6.3,48.924232,4.631334,186.379715,0.11725299999999983,0.023928999999999867,0.1387880000000017,4.9449445,1.3113134999999991,-8.150245,241,4.82,59
308126,5.025107,1.39028,-8.088029,-0.98,2.38,6.23,49.862103,8.474058,188.596664,0.02153600000000022,0.067002,-0.007178000000001461,5.014339,1.356778999999999,-8.08444,242,4.84,59
308146,5.099287,1.536247,-8.133494,-2.66,1.19,7.0,48.685295,4.9396,186.576157,0.07418000000000013,0.14596699999999996,-0.04546500000000009,5.062196999999999,1.4632634999999992,-8.1107615,243,4.86,59
308166,5.04425,1.514711,-8.066493,-3.57,0.28,7.49,51.244659,2.653309,186.994843,-0.05503700000000045,-0.021536,0.0670010000000012,5.071768499999999,1.525478999999999,-8.0999935,244,4.88,59
308186,5.104073,1.591284,-8.037778,-3.22,-1.47,7.91,49.011646,7.29001,188.252289,0.05982299999999974,0.076573,0.028715000000000046,5.074161499999999,1.5529974999999991,-8.052135499999999,245,4.9,59
308206,5.037072,1.488389,-8.126316,-0.84,-2.87,7.63,50.604095,4.634507,188.331635,-0.06700099999999942,-0.10289499999999996,-0.08853799999999978,5.070572499999999,1.539836499999999,-8.082047,246,4.92,59
308226,5.029893,1.344814,-8.23639,1.26,-3.78,7.14,49.669727,3.992361,187.803497,-0.007178999999999824,-0.143575,-0.1100740000000009,5.0334825,1.4166014999999992,-8.181353,247,4.94,59
308246,4.924605,1.244312,-8.255533,4.69,-3.85,5.95,51.440746,1.575451,188.204315,-0.10528800000000071,-0.10050199999999987,-0.019142999999999688,4.977249,1.2945629999999992,-8.2459615,248,4.96,59
308266,4.836067,1.179704,-8.183745,6.3,-4.41,5.81,50.104321,2.326366,187.645462,-0.08853799999999978,-0.064608,0.07178799999999974,4.880336,1.212007999999999,-8.219639,249,4.98,59
308286,4.922212,1.385494,-8.202888,7.21,-4.76,6.51,49.343807,1.921823,187.298462,0.08614500000000014,0.20578999999999992,-0.019142999999999688,4.879139499999999,1.2825989999999992,-8.1933165,250,5.0,59
308306,4.83846,1.416602,-8.200496,8.82,-5.74,6.58,49.856396,2.912522,188.732315,-0.0837519999999996,0.031107999999999913,0.002392000000000394,4.880336,1.401047999999999,-8.201692,251,5.02,59
308326,4.752316,1.328064,-8.233996,9.8,-6.51,6.79,49.719353,2.123104,187.331635,-0.086144,-0.088538,-0.033500000000000085,4.795388,1.372332999999999,-8.217246,252,5.04,59
308346,4.76428,1.282599,-8.293819,10.29,-6.72,7.07,50.491467,4.409791,189.974777,0.011963999999999864,-0.04546499999999987,-0.05982299999999974,4.758298,1.305331499999999,-8.263907499999998,253,5.06,59
308366,4.663778,1.158167,-8.272284,9.87,-5.81,6.93,51.256687,4.815326,190.462097,-0.10050200000000054,-0.1244320000000001,0.021534999999998305,4.714029,1.220382999999999,-8.2830515,254,5.08,59
308386,4.694886,1.016986,-8.233996,7.35,-4.34,6.02,49.615707,1.620497,188.084351,0.03110800000000058,-0.141181,0.03828800000000143,4.679332,1.087576499999999,-8.25314,255,5.1,59
308406,4.654206,1.05288,-8.257926,4.2,-3.22,5.32,50.278179,2.563969,187.826599,-0.04068000000000005,0.03589400000000009,-0.023930000000000007,4.674545999999999,1.0349329999999992,-8.245961,256,5.12,59
308426,4.730779,1.091166,-8.25314,2.94,-2.45,4.83,50.601028,1.713802,187.813919,0.07657299999999978,0.03828600000000004,0.004785999999999291,4.6924925,1.0720229999999993,-8.255533,257,5.14,59
308446,4.721208,1.117488,-8.152637,2.52,-1.68,3.99,47.707649,3.247989,186.282837,-0.009571000000000218,0.026321999999999957,0.10050299999999979,4.7259934999999995,1.1043269999999992,-8.2028885,258,5.16,59
308466,4.704457,1.14381,-8.181353,1.61,-1.68,3.71,49.696667,2.677892,188.972168,-0.016751000000000182,0.026321999999999957,-0.028715999999999298,4.712832499999999,1.1306489999999991,-8.166995,259,5.18,59
308486,4.670957,1.124667,-8.155031,-0.07,-1.68,3.5,47.388618,3.058604,187.93364,-0.033500000000000085,-0.01914299999999991,0.0263220000000004,4.687707,1.134238499999999,-8.168192,260,5.2,59
308506,4.663778,1.153382,-8.181353,-2.59,-1.33,2.8,48.133251,1.859884,187.015228,-0.007178999999999824,0.028714999999999824,-0.0263220000000004,4.667367499999999,1.1390244999999992,-8.168192,261,5.22,59
308526,4.673349,1.25867,-8.241176,-4.83,-0.63,2.1,47.776543,1.66257,187.543381,0.009571000000000218,0.10528800000000005,-0.05982299999999974,4.668563499999999,1.2060259999999992,-8.211264499999999,262,5.24,59
308546,4.733172,1.280206,-8.336892,-5.04,0.35,1.75,48.767891,3.077281,187.086594,0.05982299999999974,0.021536,-0.09571600000000124,4.703260499999999,1.2694379999999992,-8.289034000000001,263,5.26,59
308566,4.859996,1.373529,-8.329713,-3.71,1.05,1.89,49.100163,2.229097,187.354568,0.12682400000000005,0.09332300000000004,0.007179000000000713,4.796583999999999,1.3268674999999992,-8.3333025,264,5.28,59
308586,4.82171,1.335243,-8.281855,-2.87,1.19,1.75,48.350819,3.426825,188.132645,-0.038285999999999376,-0.03828600000000004,0.047857999999999734,4.840852999999999,1.354385999999999,-8.305784,265,5.3,59
308606,4.819317,1.337636,-8.274676,-2.24,0.84,1.61,47.425438,2.506789,186.714081,-0.0023930000000005336,0.0023930000000000895,0.007179000000000713,4.8205135,1.3364394999999991,-8.2782655,266,5.32,59
308626,4.709243,1.249098,-8.332106,-0.91,0.63,0.63,49.115608,3.552486,187.448868,-0.110074,-0.088538,-0.05743000000000009,4.764279999999999,1.293366999999999,-8.303391,267,5.34,59
308646,4.752316,1.366351,-8.298605,0.98,0.14,-0.14,46.776775,5.80642,187.443527,0.04307300000000058,0.11725300000000005,0.03350099999999934,4.7307795,1.307724499999999,-8.315355499999999,268,5.36,59
308666,4.728386,1.385494,-8.219639,3.29,-0.21,-0.91,46.625145,4.253359,188.290726,-0.023930000000000007,0.01914299999999991,0.07896599999999943,4.740351,1.3759224999999993,-8.259122000000001,269,5.38,59
308686,4.74753,1.356779,-8.255533,5.32,-0.21,-2.03,51.294254,0.303254,190.362946,0.019143999999999828,-0.028715000000000046,-0.03589399999999898,4.737958,1.371136499999999,-8.237586,270,5.4,59
308706,4.773852,1.253884,-8.241176,8.05,-0.35,-3.08,47.83527,4.035424,187.402863,0.026321999999999512,-0.10289499999999996,0.014357000000000397,4.760691,1.305331499999999,-8.2483545,271,5.42,59
308726,4.812138,1.131845,-8.23639,9.8,-0.07,-4.83,50.06279,2.877191,188.72467,0.038286000000000264,-0.12203900000000001,0.004785999999999291,4.7929949999999995,1.192864499999999,-8.238783,272,5.44,59
308746,4.843246,1.036129,-8.336892,9.31,-0.21,-5.81,47.745754,3.535792,188.576569,0.03110799999999969,-0.09571599999999991,-0.10050200000000054,4.827691999999999,1.0839869999999991,-8.286641,273,5.46,59
308766,4.910247,0.835125,-8.312963,7.91,-0.21,-6.65,48.035641,2.678686,187.581573,0.06700100000000031,-0.20100400000000007,0.023929000000000755,4.876746499999999,0.9356269999999991,-8.324927500000001,274,5.48,59
308786,4.938962,0.665228,-8.219639,7.07,0.21,-7.98,48.187698,4.511621,187.905472,0.028715000000000046,-0.16989699999999996,0.09332399999999907,4.924604499999999,0.7501764999999991,-8.266301,275,5.5,59
308806,4.91264,0.933234,-8.23639,8.19,-0.07,-9.73,49.164028,4.882815,188.525482,-0.0263220000000004,0.26800599999999997,-0.016750999999999294,4.925801,0.7992309999999991,-8.2280145,276,5.52,59
308826,4.606348,1.883219,-7.992313,9.03,-2.45,-11.48,49.6054,0.577972,189.301468,-0.306292,0.949985,0.24407699999999988,4.759493999999999,1.4082264999999992,-8.1143515,277,5.54,59
308846,4.139731,1.751609,-8.765223,11.34,-1.82,-14.7,47.993252,2.669764,186.318604,-0.4666169999999994,-0.13161,-0.7729100000000004,4.373039499999999,1.817413999999999,-8.378768,278,5.56,59
308866,4.118195,0.902126,-8.571397,14.0,1.19,-18.76,48.574734,2.075043,189.013,-0.02153600000000022,-0.849483,0.19382600000000139,4.128963,1.3268674999999992,-8.668310000000002,279,5.58,59
308886,4.063158,0.492939,-8.341678,11.48,2.17,-22.33,46.033352,3.805553,186.813446,-0.05503700000000045,-0.40918699999999997,0.22971899999999934,4.090676499999999,0.6975324999999991,-8.4565375,280,5.6,59
308906,4.194768,0.406794,-8.088029,0.63,3.36,-24.43,49.072762,2.782894,188.854782,0.13161000000000023,-0.08614500000000003,0.25364899999999935,4.128962999999999,0.4498664999999991,-8.2148535,281,5.62,59
308926,4.477131,0.624549,-8.018635,-12.18,4.69,-23.17,47.129204,6.282617,187.946136,0.28236300000000014,0.21775500000000003,0.06939400000000084,4.3359495,0.5156714999999992,-8.053332000000001,282,5.64,59
308946,4.505846,1.237134,-7.831988,-27.09,4.2,-18.9,47.166454,6.010675,187.897675,0.028715000000000046,0.6125849999999999,0.18664699999999979,4.491488499999999,0.930841499999999,-7.925311499999999,283,5.66,59
308966,4.460381,1.72768,-8.042564,-38.779999,3.29,-14.84,49.273701,6.706828,187.586411,-0.04546500000000009,0.49054600000000015,-0.21057600000000054,4.4831135,1.482406999999999,-7.937276000000001,284,5.68,59
308986,4.450809,2.072258,-8.403893,-32.34,1.54,-11.13,49.820469,4.504879,188.454086,-0.009572000000000358,0.34457800000000005,-0.36132899999999957,4.455594999999999,1.8999689999999991,-8.223228500000001,285,5.7,59
309006,4.364665,2.23019,-8.372786,-14.42,1.54,-8.26,49.607609,2.938931,187.47699,-0.086144,0.15793199999999974,0.03110700000000044,4.407736999999999,2.151223999999999,-8.3883395,286,5.72,59
309026,4.520204,2.211047,-8.166995,0.0,1.47,-5.67,49.534866,5.083104,188.41832,0.1555390000000001,-0.019142999999999688,0.2057909999999996,4.442434499999999,2.220618499999999,-8.269890499999999,287,5.74,59
309046,4.357486,2.005257,-7.808059,5.25,0.14,-3.57,49.955757,3.694009,189.010376,-0.16271799999999992,-0.20579000000000036,0.3589359999999999,4.438844999999999,2.108151999999999,-7.987527,288,5.76,59
309066,4.302449,2.175153,-7.956419,2.94,-2.03,0.28,48.470798,6.293363,185.976456,-0.05503699999999956,0.16989600000000005,-0.14836000000000027,4.3299674999999995,2.090204999999999,-7.882239,289,5.78,59
309086,4.520204,2.100973,-7.970777,2.59,-2.38,3.64,49.657345,5.589676,188.226929,0.21775499999999948,-0.07417999999999969,-0.014357999999999649,4.4113264999999995,2.138062999999999,-7.963598,290,5.8,59
309106,4.82171,1.95022,-8.176567,3.22,0.84,7.35,47.726593,7.771956,188.065964,0.3015060000000007,-0.15075300000000014,-0.20579000000000036,4.670957,2.0255964999999994,-8.073672,291,5.82,59
309126,5.072965,2.225405,-8.262712,2.94,6.37,12.11,49.460369,5.626989,188.515228,0.25125499999999956,0.2751849999999998,-0.08614500000000014,4.9473375,2.087812499999999,-8.2196395,292,5.84,59
309146,5.223718,2.208654,-8.085636,1.96,14.21,15.89,49.557983,4.808188,187.948868,0.15075299999999991,-0.01675099999999974,0.17707600000000134,5.148341499999999,2.217029499999999,-8.174174,293,5.86,59
309166,5.42233,2.057901,-7.930098,3.15,18.969999,20.719999,47.987328,5.868359,187.726761,0.1986119999999998,-0.15075299999999991,0.15553799999999907,5.323023999999999,2.1332774999999993,-8.007867,294,5.88,59
309186,5.360114,1.902362,-8.049743,3.5,13.65,24.99,49.182434,4.606907,187.91571,-0.06221599999999938,-0.1555390000000001,-0.11964499999999934,5.391221999999999,1.980131499999999,-7.989920499999999,295,5.9,59
309206,5.192611,1.706143,-8.126316,1.89,9.17,27.299999,49.208622,7.252696,187.963989,-0.16750299999999996,-0.19621900000000014,-0.07657299999999978,5.276362499999999,1.804252499999999,-8.0880295,296,5.92,59
309226,5.072965,1.459674,-8.009064,-0.07,7.07,28.84,50.944145,6.708018,189.25766,-0.11964600000000036,-0.24646900000000005,0.1172519999999988,5.132788,1.582908499999999,-8.067689999999999,297,5.94,59
309246,5.001178,1.203633,-7.908561,1.33,4.97,28.98,50.759548,5.148016,189.122543,-0.0717869999999996,-0.25604099999999996,0.10050300000000068,5.0370715,1.331653499999999,-7.9588125000000005,298,5.96,59
309266,4.931784,0.882983,-7.753022,4.83,3.08,27.299999,50.729969,3.821653,188.607254,-0.06939399999999996,-0.32065,0.1555390000000001,4.966481,1.0433079999999988,-7.8307915,299,5.98,59
309286,4.840853,0.976306,-8.040172,4.55,2.52,26.460001,48.847095,2.534387,187.130005,-0.09093100000000032,0.09332300000000004,-0.28715000000000046,4.8863185,0.9296444999999989,-7.896597,300,6.0,59
309306,4.814531,0.550369,-8.102386,5.25,5.25,24.57,49.27195,5.10654,186.742004,-0.0263220000000004,-0.425937,-0.0622139999999991,4.827691999999999,0.7633374999999989,-8.071279,301,6.02,59
309326,4.797781,0.402009,-8.44218,8.26,10.99,21.42,51.743546,3.920905,189.178802,-0.016750000000000043,-0.14836,-0.33979400000000126,4.806156,0.47618899999999886,-8.272283,302,6.04,59
309346,4.955713,0.701122,-8.530717,7.91,19.32,15.96,50.236221,2.83492,187.734726,0.15793200000000063,0.299113,-0.08853699999999876,4.876747,0.5515654999999988,-8.4864485,303,6.06,59
309366,4.587205,0.6748,-8.444572,-0.7,29.82,8.4,51.614605,1.813055,188.385452,-0.3685080000000003,-0.026322000000000068,0.08614499999999836,4.771459,0.6879609999999988,-8.4876445,304,6.08,59
309386,4.441237,0.268006,-8.391929,-12.11,39.759998,-3.29,46.718506,4.194236,184.915161,-0.14596799999999988,-0.40679399999999993,0.05264300000000155,4.514220999999999,0.4714029999999988,-8.4182505,305,6.1,59
309406,4.340735,-0.172289,-8.090423,-21.49,45.290001,-18.549999,48.266903,3.968727,187.948898,-0.10050200000000054,-0.440295,0.30150599999999983,4.390986,0.047858499999998846,-8.241176,306,6.12,59
309426,4.132552,-0.086145,-7.59509,-25.48,47.459999,-35.349998,50.756935,2.987982,185.935944,-0.208183,0.086144,0.4953329999999996,4.2366435,-0.12921700000000116,-7.8427565,307,6.14,59
309446,4.065551,0.58387,-6.630748,-23.379999,45.150002,-47.040001,52.212887,4.342937,187.007492,-0.06700099999999942,0.670015,0.9643420000000003,4.0990515,0.24886249999999882,-7.112919,308,6.16,59
309466,4.697278,1.567355,-6.109094,-18.969999,36.540001,-54.529999,53.439781,6.768807,185.887253,0.6317269999999997,0.983485,0.5216539999999998,4.3814145,1.0756124999999988,-6.369921,309,6.18,59
309486,5.484545,2.392908,-6.013378,-21.98,26.32,-55.790001,54.822441,5.46806,185.507233,0.7872669999999999,0.8255529999999998,0.09571599999999947,5.090911499999999,1.9801314999999988,-6.061236,310,6.2,59
309506,6.836538,2.912169,-6.645106,-31.15,15.61,-56.349998,53.04628,7.604105,183.794998,1.3519930000000002,0.5192610000000002,-0.6317279999999998,6.160541499999999,2.6525384999999986,-6.329242000000001,311,6.22,59
309526,6.972934,3.50561,-7.310334,-44.939999,10.99,-54.110001,54.550217,10.009515,184.772049,0.1363960000000004,0.5934409999999999,-0.6652279999999999,6.904736,3.208889499999999,-6.97772,312,6.24,59
309546,7.03515,3.639613,-7.367764,-52.360001,11.13,-46.48,54.385777,9.773895,184.871582,0.06221599999999938,0.13400300000000032,-0.05743000000000009,7.004042,3.572611499999999,-7.339049,313,6.26,59
309566,7.255297,3.924369,-7.260083,-44.59,11.34,-34.439999,55.416122,12.516953,185.210739,0.22014699999999987,0.2847559999999998,0.10768100000000036,7.145223499999999,3.7819909999999988,-7.3139235,314,6.28,59
309586,7.530482,4.225876,-6.872432,-26.530001,10.99,-18.34,54.748516,11.292618,184.157059,0.27518500000000046,0.3015070000000004,0.38765099999999997,7.392889499999999,4.075122499999999,-7.0662575,315,6.3,59
309606,7.425194,4.075122,-6.925076,-9.38,10.36,-5.6,52.52866,10.852544,182.271515,-0.10528799999999983,-0.15075400000000005,-0.05264399999999991,7.477838,4.150498999999999,-6.898754,316,6.32,59
309626,7.16676,4.175625,-6.90354,5.11,6.23,5.95,54.226616,14.819939,183.664352,-0.2584340000000003,0.10050299999999979,0.02153600000000022,7.295977,4.125373499999999,-6.914308,317,6.34,59
309646,6.934648,3.627649,-6.989685,19.25,0.98,15.54,57.667648,12.124347,184.565323,-0.23211199999999987,-0.5479760000000002,-0.08614500000000014,7.050704,3.901636999999999,-6.9466125,318,6.36,59
309666,6.719286,3.194532,-6.987292,28.210001,-3.5,20.65,55.14336,12.258532,182.082672,-0.21536199999999983,-0.43311699999999975,0.0023929999999996454,6.826967,3.4110904999999994,-6.9884885,319,6.38,59
309686,6.523067,2.680057,-6.956184,27.51,-7.21,23.030001,55.471348,11.689229,183.381409,-0.19621900000000014,-0.514475,0.03110799999999969,6.6211765,2.9372944999999993,-6.971738,320,6.4,59
309706,6.420172,2.412051,-7.018399,20.93,-10.36,23.59,54.462914,11.870842,184.121292,-0.10289500000000018,-0.2680060000000002,-0.06221499999999924,6.471619499999999,2.546053999999999,-6.9872914999999995,321,6.42,59
309726,6.43453,2.318728,-6.989685,12.74,-11.62,22.82,54.667557,10.235222,183.269241,0.014357999999999649,-0.09332299999999982,0.028713999999999906,6.427351,2.365389499999999,-7.004042,322,6.44,59
309746,6.240705,2.352229,-6.812609,6.37,-12.67,21.280001,53.877468,8.504314,182.406952,-0.19382499999999947,0.03350099999999978,0.17707599999999957,6.3376174999999995,2.335478499999999,-6.901147,323,6.46,59
309766,6.152167,2.294799,-7.013614,3.92,-15.190001,19.040001,54.340321,6.844268,183.090881,-0.08853799999999978,-0.05743000000000009,-0.20100499999999943,6.196436,2.323513999999999,-6.913111499999999,324,6.48,59
309786,5.98227,2.397694,-7.142831,4.55,-16.1,16.799999,53.159344,8.108694,183.322937,-0.16989700000000063,0.10289500000000018,-0.12921700000000058,6.067218499999999,2.346246499999999,-7.0782225,325,6.5,59
309806,5.872197,2.440766,-7.102151,8.05,-15.12,15.190001,53.770863,9.601007,183.863754,-0.11007299999999987,0.043072,0.04068000000000005,5.9272335,2.419229999999999,-7.122491,326,6.52,59
309826,5.738194,2.397694,-7.135652,11.2,-15.47,14.84,55.205338,8.311163,185.027359,-0.13400299999999987,-0.043072,-0.033501000000000225,5.8051955,2.419229999999999,-7.1189015,327,6.54,59
309846,5.699907,2.321121,-7.18351,12.81,-16.309999,15.12,51.25378,7.376217,183.486237,-0.038287000000000404,-0.07657299999999978,-0.047857999999999734,5.7190505,2.359407499999999,-7.159581,328,6.56,59
309866,5.565904,2.311549,-7.288798,10.99,-17.01,15.33,53.90527,7.749593,185.917816,-0.13400299999999987,-0.009572000000000358,-0.10528799999999983,5.6329055,2.316334999999999,-7.236154,329,6.58,59
309886,5.47976,2.148831,-7.396479,9.17,-16.1,15.47,50.349419,8.340308,184.644485,-0.086144,-0.16271799999999992,-0.10768100000000036,5.522831999999999,2.230189999999999,-7.3426385,330,6.6,59
309906,5.357721,2.292406,-7.391693,7.07,-13.93,14.77,51.065338,6.37497,185.552979,-0.12203900000000001,0.14357500000000023,0.004786000000000179,5.418740499999999,2.220618499999999,-7.394086,331,6.62,59
309926,5.312256,2.433588,-7.461087,5.39,-11.9,14.07,53.900558,7.748601,185.777481,-0.04546500000000009,0.1411819999999997,-0.06939399999999996,5.3349885,2.362996999999999,-7.42639,332,6.64,59
309946,5.259612,2.440766,-7.475445,4.69,-9.8,13.440001,51.254646,7.935963,185.82843,-0.05264399999999991,0.007178000000000129,-0.014357999999999649,5.285933999999999,2.4371769999999993,-7.468266,333,6.66,59
309966,5.283541,2.342657,-7.528089,3.5,-7.56,14.21,49.176113,8.006428,184.31279,0.023928999999999867,-0.098109,-0.05264399999999991,5.271576499999999,2.391711499999999,-7.501766999999999,334,6.68,59
309986,5.278755,2.340264,-7.626198,3.29,-6.86,15.190001,50.170853,8.101714,184.323029,-0.004785999999999291,-0.0023930000000000895,-0.098109,5.281148,2.3414604999999993,-7.5771435,335,6.7,59
310006,5.312256,2.237369,-7.568769,2.8,-5.46,15.05,49.457436,7.707084,185.379333,0.03350099999999934,-0.10289499999999974,0.05742899999999995,5.295505499999999,2.2888164999999994,-7.597483499999999,336,6.72,59
310026,5.10168,2.225405,-7.482624,1.4,-4.76,14.21,49.947685,5.493239,184.563049,-0.21057599999999965,-0.011964000000000308,0.08614499999999925,5.206968,2.231386999999999,-7.5256965000000005,337,6.74,59
310046,5.118431,2.208654,-7.516124,-1.68,-4.27,11.76,52.204784,5.661369,186.400146,0.016751000000000182,-0.01675099999999974,-0.0334999999999992,5.1100555,2.217029499999999,-7.4993739999999995,338,6.76,59
310066,5.063394,1.971756,-7.671663,-3.64,-4.06,9.8,48.680614,5.419404,182.595856,-0.05503700000000045,-0.23689800000000005,-0.1555390000000001,5.0909125,2.090204999999999,-7.5938935,339,6.78,59
310085,5.187825,1.847325,-7.686021,-4.76,-2.24,7.91,50.182343,5.463857,185.397385,0.1244310000000004,-0.12443099999999996,-0.014358000000000537,5.1256094999999995,1.9095404999999992,-7.6788419999999995,340,6.8,59
310105,5.27397,1.799467,-7.592697,-4.48,1.26,7.07,50.712906,5.898774,185.050369,0.08614500000000014,-0.04785800000000018,0.09332399999999996,5.230897499999999,1.8233959999999991,-7.639359000000001,341,6.82,59
310125,5.379257,1.627177,-7.611841,-4.13,3.01,6.3,51.004082,5.881286,187.568665,0.10528699999999969,-0.17228999999999983,-0.019143999999999828,5.3266135,1.7133219999999991,-7.602269,342,6.84,59
310145,5.680764,1.737251,-7.597483,-3.71,3.22,5.18,52.096432,5.157772,187.012527,0.30150699999999997,0.110074,0.014357999999999649,5.5300104999999995,1.6822139999999992,-7.604662,343,6.86,59
310165,5.798016,1.708536,-7.724308,-5.11,2.87,3.85,52.033997,8.344472,186.73674,0.11725199999999969,-0.028715000000000046,-0.1268249999999993,5.739389999999999,1.7228934999999992,-7.6608955000000005,344,6.88,59
310185,5.943984,1.811431,-7.614233,-8.96,2.66,3.36,50.151554,7.337079,186.430588,0.14596800000000076,0.10289499999999996,0.11007500000000014,5.8709999999999996,1.7599834999999993,-7.6692705,345,6.9,59
310205,6.034914,2.103366,-7.537661,-12.95,1.26,3.78,52.888592,4.248839,188.668518,0.09092999999999929,0.29193499999999983,0.07657199999999964,5.989449,1.957398499999999,-7.575946999999999,346,6.92,59
310225,6.111487,2.581948,-7.458694,-19.879999,0.07,5.53,50.229008,5.193896,185.629593,0.07657300000000067,0.4785820000000003,0.07896699999999957,6.0732005,2.342656999999999,-7.498177500000001,347,6.94,59
310245,6.015771,2.474267,-7.413229,-24.710001,-0.98,8.61,50.050442,4.955302,185.308121,-0.09571600000000036,-0.10768099999999992,0.04546500000000009,6.063629,2.528107499999999,-7.4359615,348,6.96,59
310265,5.733408,2.469481,-7.461087,-24.08,-2.45,12.39,49.510563,9.038404,186.596283,-0.28236300000000014,-0.004786000000000179,-0.047857999999999734,5.874589499999999,2.4718739999999992,-7.437158,349,6.98,59
310285,5.415151,2.536483,-7.413229,-19.6,-3.29,16.17,51.520088,6.033358,185.629562,-0.318257,0.067002,0.047857999999999734,5.574279499999999,2.5029819999999994,-7.437158,350,7.0,59
310305,5.17586,2.416837,-7.513731,-13.51,-3.22,18.059999,50.353237,7.300756,186.282608,-0.2392909999999997,-0.11964599999999992,-0.10050199999999965,5.295505499999999,2.476659999999999,-7.463480000000001,351,7.02,59
310325,5.257219,2.526911,-7.537661,-8.54,-2.45,17.85,50.859371,6.690174,186.73172,0.08135899999999996,0.110074,-0.023930000000000007,5.2165395,2.4718739999999992,-7.525696,352,7.04,59
310345,5.262005,2.191904,-7.508945,-8.54,-1.68,16.73,49.818398,7.144721,187.660385,0.004786000000000179,-0.33500700000000005,0.028716000000000186,5.259612,2.359407499999999,-7.523303,353,7.06,59
310365,5.187825,1.914326,-7.418015,-9.52,-0.56,15.47,51.404495,7.407939,187.976791,-0.07418000000000013,-0.2775780000000001,0.09093000000000018,5.224914999999999,2.053114999999999,-7.46348,354,7.08,59
310385,5.3649,1.830575,-7.46348,-8.61,1.12,14.14,51.235344,7.171328,187.935974,0.17707499999999943,-0.08375099999999991,-0.04546500000000009,5.276362499999999,1.8724504999999991,-7.4407475,355,7.1,59
310405,5.656835,2.000471,-7.607055,-7.98,1.96,12.53,50.235897,7.07505,187.785431,0.2919350000000005,0.16989600000000005,-0.14357500000000023,5.5108675,1.9155229999999992,-7.5352675,356,7.12,59
310425,5.357721,1.95022,-7.422801,-9.38,2.45,10.64,48.443859,7.607831,184.807785,-0.2991140000000003,-0.050251000000000046,0.18425400000000014,5.5072779999999995,1.975345499999999,-7.514927999999999,357,7.14,59
310445,5.467795,2.012436,-7.444337,-12.88,2.73,8.89,51.63269,5.777276,187.826385,0.110074,0.06221600000000005,-0.02153600000000022,5.412757999999999,1.981327999999999,-7.433569,358,7.16,59
310465,5.410365,1.816217,-7.571161,-13.79,2.52,7.07,49.991825,7.10245,186.670425,-0.05743000000000009,-0.19621900000000014,-0.12682400000000005,5.439079999999999,1.9143264999999992,-7.5077490000000004,359,7.18,59
310485,5.582654,2.124902,-7.657306,-14.21,3.29,4.69,49.246761,8.021297,186.41774,0.17228900000000014,0.3086850000000001,-0.08614500000000014,5.496509499999999,1.9705594999999991,-7.6142335,360,7.2,59
310505,5.42233,1.974149,-7.525696,-16.73,3.01,1.89,50.746738,6.465459,188.374878,-0.16032400000000013,-0.15075300000000014,0.13161000000000023,5.502491999999999,2.0495254999999992,-7.591501,361,7.22,59
310525,5.518046,1.825789,-7.453909,-17.360001,2.31,-0.7,50.262516,10.000711,189.004791,0.09571600000000036,-0.14835999999999983,0.0717869999999996,5.470187999999999,1.8999689999999991,-7.4898025,362,7.24,59
310545,5.477366,2.297192,-7.262476,-21.07,2.31,-4.06,50.000385,6.544687,184.608902,-0.04068000000000005,0.4714029999999998,0.19143299999999996,5.497705999999999,2.0614904999999992,-7.3581925,363,7.26,59
310565,5.774087,2.744666,-7.444337,-23.52,2.8,-6.65,48.895653,8.865516,185.58844,0.2967209999999998,0.44747400000000015,-0.1818609999999996,5.625726499999999,2.520928999999999,-7.3534065,364,7.28,59
310585,5.757337,3.211283,-7.207439,-24.57,2.59,-6.51,52.155586,7.8105,188.043121,-0.016750000000000043,0.46661699999999984,0.23689800000000005,5.765711999999999,2.9779744999999993,-7.325888,365,7.3,59
310605,5.991842,3.206497,-7.231368,-19.110001,0.84,-4.83,49.065231,9.382,186.800354,0.2345050000000004,-0.004785999999999735,-0.023928999999999867,5.874589499999999,3.2088899999999994,-7.2194035,366,7.32,59
310625,5.98227,3.280677,-7.329477,-6.79,-1.12,-1.82,50.484715,7.529437,185.200775,-0.009572000000000358,0.07417999999999969,-0.098109,5.987055999999999,3.243586999999999,-7.2804225,367,7.34,59
310645,5.900911,3.132317,-7.341442,5.67,-0.63,0.77,48.739418,11.831464,187.51712,-0.08135899999999996,-0.14835999999999983,-0.011965000000000003,5.941590499999999,3.206496999999999,-7.3354595,368,7.36,59
310665,5.723836,2.828417,-7.291191,13.09,-0.28,2.1,50.009022,10.02613,187.609146,-0.17707499999999943,-0.30390000000000006,0.05025099999999938,5.8123735,2.9803669999999993,-7.3163165,369,7.38,59
310685,5.687943,2.629806,-7.171546,15.05,-0.84,1.89,50.392239,8.629104,187.078552,-0.03589300000000062,-0.1986110000000001,0.11964500000000022,5.7058895,2.7291114999999992,-7.2313685,370,7.4,59
310705,5.697514,2.459909,-7.212225,12.6,-0.21,0.98,51.249043,6.894429,187.185883,0.009571000000000218,-0.16989699999999974,-0.04067899999999991,5.692728499999999,2.544857499999999,-7.1918855,371,7.42,59
310725,5.680764,2.502982,-7.188296,10.01,1.4,-0.49,49.367924,7.207452,186.55304,-0.016750000000000043,0.043072999999999695,0.023928999999999867,5.689138999999999,2.481445499999999,-7.200260500000001,372,7.44,59
310745,5.769301,2.390515,-7.090187,6.44,2.52,-1.68,52.535416,7.732899,187.045517,0.08853699999999964,-0.11246699999999965,0.098109,5.725032499999999,2.446748499999999,-7.139241500000001,373,7.46,59
310765,5.800409,2.467088,-7.133259,5.11,2.45,-1.82,51.599724,5.770336,186.84407,0.03110800000000058,0.07657299999999978,-0.043071999999999555,5.784854999999999,2.428801499999999,-7.111723,374,7.48,59
310785,5.917662,2.462302,-7.22419,6.16,2.24,-1.96,50.938572,6.147281,186.775146,0.11725299999999983,-0.004785999999999735,-0.09093100000000032,5.859035499999999,2.464694999999999,-7.1787244999999995,375,7.5,59
310805,5.89134,2.392908,-7.121294,7.7,3.15,-1.68,51.540676,7.637612,187.035294,-0.0263220000000004,-0.0693940000000004,0.10289600000000032,5.904501,2.427604999999999,-7.1727419999999995,376,7.52,59
310825,5.987056,2.55084,-7.049507,8.47,2.24,-1.4,51.059414,9.573565,186.961136,0.09571600000000036,0.15793200000000018,0.0717869999999996,5.939197999999999,2.471873999999999,-7.0854005,377,7.54,59
310845,5.996628,2.526911,-7.087794,7.7,1.12,-0.49,50.705669,7.776953,186.785217,0.009572000000000358,-0.023928999999999867,-0.038286999999999516,5.991842,2.538875499999999,-7.0686505,378,7.56,59
310865,6.001413,2.414444,-7.197867,6.65,0.77,-0.07,48.13942,8.182091,184.210693,0.004785000000000039,-0.1124670000000001,-0.11007299999999987,5.9990205,2.470677499999999,-7.1428305,379,7.58,59
310885,5.927233,2.40248,-7.123687,5.46,0.77,-0.42,49.71093,7.681665,186.774994,-0.07418000000000013,-0.011963999999999864,0.07417999999999925,5.964323,2.408461999999999,-7.1607769999999995,380,7.6,59
310905,5.92484,2.514946,-7.080615,3.36,0.0,-1.33,51.104763,7.98319,187.520035,-0.0023930000000005336,0.11246599999999995,0.04307200000000044,5.9260364999999995,2.4587129999999995,-7.102151,381,7.62,59
310925,5.879375,2.660914,-7.173938,2.52,-1.19,-2.59,51.64814,7.100666,187.920685,-0.04546500000000009,0.14596799999999988,-0.09332299999999982,5.9021075,2.587929999999999,-7.1272765,382,7.64,59
310945,5.960734,2.73988,-7.25769,3.08,-1.61,-2.59,49.794521,11.379892,187.009445,0.08135900000000085,0.07896599999999987,-0.08375200000000049,5.920054499999999,2.700396999999999,-7.215814,383,7.66,59
310965,5.927233,2.809274,-7.212225,4.2,-1.05,-1.82,52.442829,4.312562,187.701508,-0.033501000000000225,0.06939399999999996,0.04546500000000009,5.9439835,2.774576999999999,-7.2349575,384,7.68,59
310985,5.819552,2.725522,-7.171546,6.02,-0.49,-1.26,51.398037,5.806658,186.99205,-0.10768100000000036,-0.08375200000000005,0.04067899999999991,5.8733925,2.767397999999999,-7.1918855,385,7.7,59
311005,5.802802,2.613056,-7.185903,7.7,-0.28,-0.91,52.228764,5.946199,188.272903,-0.016750000000000043,-0.11246599999999995,-0.014356999999999509,5.811176999999999,2.669288999999999,-7.1787244999999995,386,7.72,59
311025,5.774087,2.49341,-7.142831,9.17,0.07,-1.26,48.686726,10.780018,187.471268,-0.028715000000000046,-0.11964599999999992,0.043071999999999555,5.788444499999999,2.5532329999999988,-7.164367,387,7.74,59
311045,5.728622,2.371372,-7.25769,9.1,0.49,-2.31,51.621632,8.695006,187.923126,-0.04546500000000009,-0.12203799999999987,-0.11485900000000004,5.7513545,2.432390999999999,-7.200260500000001,388,7.76,59
311065,5.783659,2.409658,-7.22419,7.21,0.84,-3.36,51.239624,6.892446,186.905212,0.05503700000000045,0.03828599999999982,0.033500000000000085,5.756140499999999,2.390514999999999,-7.24094,389,7.78,59
311085,5.821945,2.474267,-7.231368,6.37,1.26,-3.99,52.667637,4.001322,187.084076,0.038286000000000264,0.06460900000000036,-0.007177999999999685,5.802802,2.441962499999999,-7.227779,390,7.8,59
311105,5.841089,2.479053,-7.228975,7.07,1.4,-3.71,51.080326,6.937691,188.316162,0.019143999999999828,0.004785999999999735,0.0023929999999996454,5.831517,2.476659999999999,-7.2301715,391,7.82,59
311125,5.855446,2.558019,-7.164367,9.38,1.61,-2.03,49.592728,6.896213,185.935623,0.014356999999999509,0.07896599999999987,0.06460799999999978,5.8482674999999995,2.518535999999999,-7.196671,392,7.84,59
311145,5.884161,2.617841,-7.138045,11.13,0.63,-0.14,49.294315,8.79188,185.152161,0.028715000000000046,0.05982200000000004,0.0263220000000004,5.8698035,2.587929999999999,-7.151206,393,7.86,59
311165,5.898519,2.438373,-7.250512,11.2,-1.05,1.33,50.539478,5.941043,186.040329,0.014358000000000537,-0.17946799999999996,-0.11246699999999965,5.89134,2.528106999999999,-7.194278499999999,394,7.88,59
311185,5.879375,2.34505,-7.272048,10.78,-1.89,1.68,49.488224,5.833861,184.34613,-0.019144000000000716,-0.09332299999999982,-0.02153600000000022,5.888947,2.391711499999999,-7.261279999999999,395,7.9,59
311205,5.855446,2.352229,-7.245726,7.91,-2.66,0.98,50.266792,9.721828,187.97403,-0.023928999999999867,0.007178999999999824,0.026321999999999512,5.867410499999999,2.348639499999999,-7.258887,396,7.92,59
311225,5.800409,2.268477,-7.217011,4.48,-3.01,0.14,50.534771,5.940053,185.899994,-0.05503699999999956,-0.08375200000000005,0.028715000000000046,5.8279274999999995,2.310352999999999,-7.2313685,397,7.94,59
311245,5.865018,2.194297,-7.188296,3.57,-2.8,-0.77,48.968826,7.001215,185.818222,0.06460899999999992,-0.07417999999999969,0.028715000000000046,5.8327135,2.231386999999999,-7.2026535,398,7.96,59
311265,5.860232,2.27087,-7.24094,5.39,-2.17,-1.05,50.595566,5.673067,186.553192,-0.004786000000000179,0.07657299999999978,-0.05264399999999991,5.8626249999999995,2.232583499999999,-7.214618,399,7.98,59
311285,5.884161,2.340264,-7.209832,8.33,-1.05,-0.56,52.523468,9.610087,188.64003,0.023928999999999867,0.06939399999999996,0.03110800000000058,5.872196499999999,2.305566999999999,-7.225386,400,8.0,59
311305,5.85066,2.426409,-7.28162,11.13,-0.21,0.56,48.968395,6.721342,184.647125,-0.03350099999999934,0.08614500000000014,-0.07178800000000063,5.8674105,2.383336499999999,-7.2457259999999994,401,8.02,59
311325,5.876982,2.380944,-7.29837,12.39,0.63,1.89,49.840195,5.549388,187.517624,0.026321999999999512,-0.04546500000000009,-0.016750000000000043,5.863821,2.403676499999999,-7.289995,402,8.04,59
311345,5.869803,2.43598,-7.25769,12.81,1.4,3.5,53.163136,6.588345,188.801025,-0.007178999999999824,0.05503599999999986,0.04068000000000005,5.8733925,2.408461999999999,-7.27803,403,8.06,59
311365,5.905697,2.342657,-7.150009,11.69,1.33,5.04,52.518646,5.089093,187.277908,0.03589399999999987,-0.09332299999999982,0.10768100000000036,5.88775,2.389318499999999,-7.2038495000000005,404,8.08,59
311385,5.896125,2.129688,-7.269655,9.87,0.84,6.16,50.906036,6.420215,186.963928,-0.009572000000000358,-0.21296900000000019,-0.11964600000000036,5.900910999999999,2.236172499999999,-7.2098320000000005,405,8.1,59
311405,5.841089,2.00765,-7.267262,7.14,1.19,5.95,50.628532,5.680006,187.535507,-0.05503599999999942,-0.12203799999999987,0.0023930000000005336,5.868606999999999,2.068668999999999,-7.2684584999999995,406,8.12,59
311425,5.83391,2.048329,-7.305548,3.85,1.05,4.76,50.407578,5.43249,185.951065,-0.007178999999999824,0.04067899999999991,-0.038286000000000264,5.8374995,2.027989499999999,-7.286405,407,8.14,59
311445,5.872197,2.079437,-7.219404,2.31,1.19,3.43,49.237339,8.019315,186.137085,0.038286999999999516,0.031108000000000136,0.086144,5.8530535,2.063882999999999,-7.2624759999999995,408,8.16,59
311465,5.967913,2.148831,-7.217011,3.57,1.68,1.96,51.157784,4.794508,187.515167,0.09571600000000036,0.06939399999999996,0.0023929999999996454,5.920055,2.114133999999999,-7.2182075,409,8.18,59
311485,6.003807,2.337871,-7.22419,6.44,2.38,1.33,50.083408,4.962241,186.290436,0.03589399999999987,0.18903999999999987,-0.007178999999999824,5.98586,2.2433509999999988,-7.2206005,410,8.2,59
311505,6.025342,2.335478,-7.245726,11.13,2.1,1.61,51.250362,8.214845,186.859192,0.021535000000000082,-0.0023929999999996454,-0.02153600000000022,6.0145745,2.336674499999999,-7.234958000000001,411,8.22,59
311525,6.018164,2.244548,-7.341442,15.190001,1.89,2.1,49.237339,8.019315,186.137085,-0.007178000000000573,-0.09093000000000018,-0.09571599999999947,6.0217529999999995,2.290012999999999,-7.293584,412,8.24,59
311545,6.063629,2.019614,-7.25769,17.08,1.75,1.82,49.479668,6.391625,186.407669,0.04546500000000009,-0.2249340000000002,0.0837519999999996,6.040896499999999,2.132080999999999,-7.299566,413,8.26,59
311565,6.037307,1.921505,-7.28162,14.49,0.35,0.56,50.565666,8.586833,186.088608,-0.026321999999999512,-0.09810899999999978,-0.023930000000000007,6.0504679999999995,1.970559499999999,-7.269655,414,8.28,59
311585,6.006199,1.835361,-7.398872,8.33,-1.61,-1.26,51.76712,4.40666,186.040482,-0.03110800000000058,-0.086144,-0.11725199999999969,6.0217529999999995,1.8784329999999991,-7.3402460000000005,415,8.3,59
311605,5.92484,1.758787,-7.422801,3.15,-2.8,-3.22,51.091846,4.78063,185.550552,-0.08135899999999996,-0.07657399999999992,-0.023928999999999867,5.965519499999999,1.7970739999999992,-7.4108365,416,8.32,59
311625,5.943984,1.765966,-7.458694,1.47,-2.73,-5.04,49.73394,2.886748,185.08374,0.019144000000000716,0.007178999999999824,-0.03589300000000062,5.934412,1.7623764999999991,-7.4407475000000005,417,8.34,59
311645,5.967913,1.816217,-7.343835,2.03,-2.66,-6.44,50.902645,7.73964,186.496902,0.023928999999999867,0.050251000000000046,0.11485900000000004,5.9559485,1.791091499999999,-7.4012645,418,8.36,59
311665,6.008592,1.928684,-7.295977,2.94,-3.99,-7.0,48.864754,6.218736,185.399841,0.04067899999999991,0.1124670000000001,0.04785800000000062,5.9882525,1.8724504999999991,-7.319906,419,8.38,59
311685,6.034914,1.952613,-7.329477,3.92,-5.32,-6.51,48.89476,7.824973,187.086227,0.026321999999999512,0.023928999999999867,-0.033500000000000085,6.0217529999999995,1.940648499999999,-7.312727,420,8.4,59
311705,6.034914,1.871254,-7.252904,4.83,-6.51,-5.25,50.85334,5.368768,186.918076,0.0,-0.08135899999999996,0.07657299999999978,6.034914,1.911933499999999,-7.2911905,421,8.42,59
311725,5.963127,1.840146,-7.334263,5.32,-8.4,-3.85,50.36134,5.982323,186.889954,-0.0717869999999996,-0.031107999999999913,-0.08135899999999996,5.999020499999999,1.8556999999999992,-7.2935835,422,8.44,59
311745,5.886554,1.835361,-7.327085,5.11,-8.96,-3.22,52.513935,5.088101,187.137573,-0.07657299999999978,-0.004785000000000039,0.007177999999999685,5.9248405,1.8377534999999992,-7.330674,423,8.46,59
311765,5.769301,1.847325,-7.406051,4.83,-8.82,-3.43,47.870449,6.403321,186.560715,-0.11725300000000072,0.011964000000000086,-0.07896599999999943,5.8279274999999995,1.8413429999999993,-7.366568,424,8.48,59
311785,5.788445,1.888005,-7.427587,4.13,-7.91,-4.06,50.922695,4.544018,185.509735,0.019144000000000716,0.04067999999999983,-0.02153600000000022,5.778872999999999,1.8676649999999992,-7.416819,425,8.5,59
311805,5.709479,2.000471,-7.3893,1.68,-6.44,-5.25,48.666885,5.215507,187.185928,-0.07896600000000031,0.11246600000000018,0.038286999999999516,5.748962,1.9442379999999992,-7.408443500000001,426,8.52,59
311825,5.687943,2.050722,-7.386907,-0.21,-5.74,-6.23,53.637157,6.53057,190.610031,-0.02153600000000022,0.050250999999999824,0.0023930000000005336,5.698710999999999,2.025596499999999,-7.3881035,427,8.54,59
311845,5.709479,2.15601,-7.334263,-0.21,-4.9,-6.79,51.264816,3.977689,187.229477,0.02153600000000022,0.10528800000000027,0.05264399999999991,5.698710999999999,2.1033659999999994,-7.360585,428,8.56,59
311865,5.75973,2.141653,-7.319906,0.98,-4.55,-7.07,48.750374,4.393732,186.198578,0.05025100000000027,-0.014357000000000397,0.014357000000000397,5.7346045,2.148831499999999,-7.3270845,429,8.58,59
311885,5.680764,2.19669,-7.425194,1.68,-5.11,-6.93,50.173782,6.021619,187.458923,-0.07896600000000031,0.055037,-0.10528800000000071,5.720247,2.169171499999999,-7.37255,430,8.6,59
311905,5.678371,2.237369,-7.434765,2.87,-6.23,-6.37,48.469479,4.972948,186.303131,-0.0023929999999996454,0.040679000000000354,-0.00957099999999933,5.679567499999999,2.217029499999999,-7.4299795,431,8.62,59
311925,5.597012,2.294799,-7.406051,4.13,-6.23,-5.95,51.081078,2.977434,189.436554,-0.08135899999999996,0.05742999999999965,0.028713999999999906,5.6376915,2.2660839999999993,-7.420408,432,8.64,59
311945,5.549154,2.299585,-7.418015,5.04,-6.09,-5.53,48.949959,6.516453,189.096878,-0.04785800000000062,0.004786000000000179,-0.011963999999999864,5.573083,2.297191999999999,-7.412032999999999,433,8.66,59
311965,5.518046,2.218226,-7.449123,6.23,-5.95,-5.18,48.76878,4.117824,185.588806,-0.03110799999999969,-0.08135899999999996,-0.03110800000000058,5.5336,2.258905499999999,-7.433569,434,8.68,59
311985,5.498903,2.189511,-7.513731,6.72,-5.18,-4.83,48.710163,6.264971,186.951111,-0.019142999999999688,-0.028715000000000046,-0.06460799999999978,5.5084745,2.203868499999999,-7.481427,435,8.7,59
312005,5.525225,2.127295,-7.556804,5.11,-4.06,-4.69,47.077393,6.271712,186.402512,0.026321999999999512,-0.06221599999999983,-0.043072999999999695,5.512064,2.158402999999999,-7.5352675,436,8.72,59
312025,5.599405,2.069865,-7.542446,3.71,-3.43,-4.06,48.370113,4.19146,186.025085,0.07418000000000013,-0.05743000000000009,0.014357999999999649,5.562315,2.0985799999999992,-7.549625,437,8.74,59
312045,5.597012,2.069865,-7.501767,2.87,-3.78,-2.87,50.165115,2.059381,188.298645,-0.0023929999999996454,0.0,0.04067899999999991,5.5982085,2.069865,-7.5221065,438,8.76,59
312065,5.721443,2.074651,-7.499374,2.59,-4.48,-0.77,48.575733,7.635588,188.73703,0.12443099999999951,0.004785999999999735,0.0023929999999996454,5.6592275,2.072257999999999,-7.5005705,439,8.78,59
312085,5.673585,2.110545,-7.506553,3.57,-5.6,1.68,49.600372,4.81711,189.211838,-0.047857999999999734,0.035894000000000315,-0.007178999999999824,5.697514,2.092597999999999,-7.5029635,440,8.8,59
312105,5.503689,2.050722,-7.549625,5.53,-7.14,3.57,49.787926,4.777813,188.642883,-0.1698960000000005,-0.05982300000000018,-0.043071999999999555,5.588636999999999,2.0806334999999994,-7.528089,441,8.82,59
312125,5.374472,2.038758,-7.590304,7.98,-7.84,4.27,50.541981,3.581077,188.005127,-0.1292169999999997,-0.011963999999999864,-0.04067899999999991,5.439080499999999,2.044739999999999,-7.569964499999999,442,8.84,59
312145,5.250041,1.93347,-7.647734,8.75,-8.33,3.43,49.385872,6.170874,188.612137,-0.12443099999999951,-0.10528800000000005,-0.05743000000000009,5.3122565,1.9861139999999993,-7.619019,443,8.86,59
312165,5.238076,1.880826,-7.688414,8.12,-8.12,2.52,48.948212,4.916164,188.252472,-0.011965000000000003,-0.05264399999999991,-0.04068000000000005,5.2440584999999995,1.9071479999999992,-7.668074,444,8.88,59
312185,5.23329,1.871254,-7.633377,6.37,-7.49,1.75,49.275772,4.066988,188.380112,-0.004786000000000179,-0.009572000000000136,0.05503699999999956,5.235683,1.8760399999999993,-7.6608955000000005,445,8.9,59
312205,5.190217,1.880826,-7.714736,3.92,-6.37,0.91,47.621204,5.669061,187.974258,-0.04307300000000058,0.009572000000000136,-0.08135899999999996,5.2117534999999995,1.8760399999999993,-7.674056500000001,446,8.92,59
312225,5.089715,1.962185,-7.793702,2.59,-4.48,-0.21,48.233154,7.441247,189.686172,-0.10050199999999965,0.08135899999999996,-0.07896599999999943,5.139965999999999,1.9215054999999992,-7.754219,447,8.94,59
312245,5.106466,1.998078,-7.848739,1.96,-2.52,-1.33,47.968922,6.144267,188.336548,0.016751000000000182,0.03589299999999995,-0.05503700000000045,5.0980905,1.9801314999999993,-7.8212205,448,8.96,59
312265,5.116037,1.952613,-7.757808,1.75,-0.84,-2.52,47.149681,3.366869,188.130066,0.009571000000000218,-0.04546500000000009,0.09093100000000032,5.1112515,1.975345499999999,-7.8032734999999995,449,8.98,59
312285,5.15911,1.914326,-7.738665,1.82,0.07,-3.78,49.62524,6.142482,189.586807,0.043072999999999695,-0.03828699999999996,0.019142999999999688,5.1375735,1.933469499999999,-7.7482365,450,9.0,59
312305,5.168682,1.95022,-7.748236,2.17,0.7,-4.41,49.255611,2.742607,188.145477,0.009572000000000358,0.03589400000000009,-0.009571000000000218,5.163895999999999,1.932272999999999,-7.7434505,451,9.02,59
312325,5.252433,1.981328,-7.796094,1.96,1.26,-4.76,50.72316,5.979705,191.513199,0.08375099999999946,0.031107999999999913,-0.047857999999999734,5.2105575,1.9657739999999992,-7.772165,452,9.04,59
312345,5.321827,2.048329,-7.791309,1.19,1.47,-5.46,48.021511,2.675712,187.160583,0.06939399999999996,0.06700099999999987,0.004785000000000039,5.287129999999999,2.0148284999999992,-7.7937015,453,9.06,59
312365,5.293113,2.110545,-7.78413,0.98,1.26,-5.6,46.449215,6.655596,187.315872,-0.028713999999999906,0.06221600000000027,0.007178999999999824,5.3074699999999995,2.0794369999999995,-7.7877195,454,9.08,59
312385,5.345757,2.077044,-7.753022,1.61,1.47,-5.46,48.155159,4.784554,188.094269,0.05264399999999991,-0.033501000000000225,0.03110800000000058,5.3194349999999995,2.0937944999999996,-7.7685759999999995,455,9.1,59
312405,5.407972,2.093795,-7.736272,2.73,1.19,-5.88,47.14465,7.606007,188.040436,0.06221500000000013,0.016751000000000182,0.016750000000000043,5.3768645,2.0854194999999995,-7.744647,456,9.12,59
312425,5.3649,2.012436,-7.757808,3.29,0.91,-6.23,49.238525,4.33893,188.428574,-0.04307200000000044,-0.08135899999999996,-0.02153600000000022,5.386436,2.0531154999999996,-7.74704,457,9.14,59
312445,5.384043,2.067473,-7.733879,3.15,0.49,-6.37,46.953594,4.444726,186.920593,0.019143000000000576,0.055037,0.023928999999999867,5.374471499999999,2.0399544999999994,-7.745843499999999,458,9.16,59
312465,5.281148,2.084223,-7.736272,3.5,-0.14,-6.79,48.544838,4.988809,188.548416,-0.10289500000000018,0.016750000000000043,-0.0023929999999996454,5.3325955,2.0758479999999997,-7.7350755,459,9.18,59
312485,5.185432,2.15601,-7.788916,4.48,-0.49,-6.79,50.004173,5.024338,190.08699,-0.09571600000000036,0.07178700000000005,-0.0526440000000008,5.233289999999999,2.1201164999999995,-7.762594,460,9.2,59
312505,5.214147,2.167975,-7.669271,5.39,-0.91,-6.65,49.41798,5.618068,187.252258,0.028715000000000046,0.011965000000000003,0.11964500000000022,5.1997895,2.1619924999999993,-7.7290935,461,9.22,59
312525,5.125609,2.127295,-7.6932,8.26,-0.77,-6.23,47.977909,5.866376,187.446106,-0.08853799999999978,-0.04068000000000005,-0.023928999999999867,5.169877999999999,2.1476349999999993,-7.6812355,462,9.24,59
312545,5.15911,2.120116,-7.776951,11.9,-0.07,-5.88,48.527748,6.585133,188.831512,0.033501000000000225,-0.0071790000000002685,-0.08375100000000035,5.1423594999999995,2.1237054999999994,-7.735075500000001,463,9.26,59
312565,5.156717,2.103366,-7.82481,15.96,0.77,-5.67,50.381042,6.546034,189.793457,-0.0023929999999996454,-0.016750000000000043,-0.047858999999999874,5.157913499999999,2.1117409999999994,-7.8008805,464,9.28,59
312585,5.151931,2.17276,-7.628591,19.879999,2.31,-5.25,49.278839,6.987692,188.897842,-0.004786000000000179,0.06939399999999996,0.19621900000000014,5.154324,2.138062999999999,-7.7267005,465,9.3,59
312605,5.029893,2.151224,-7.57834,23.379999,3.99,-3.92,47.953041,4.541004,187.071136,-0.12203799999999987,-0.021535999999999778,0.05025100000000027,5.090911999999999,2.1619919999999992,-7.6034655,466,9.32,59
312625,5.068179,2.254119,-7.575947,24.219999,6.16,-3.01,49.699303,5.318724,188.318802,0.038285999999999376,0.10289500000000018,0.0023929999999996454,5.049035999999999,2.2026714999999992,-7.5771435,467,9.34,59
312645,5.156717,2.182332,-7.575947,22.190001,8.82,-2.87,50.139465,4.213467,190.643265,0.08853800000000067,-0.07178700000000005,0.0,5.112448,2.2182254999999995,-7.575947,468,9.36,59
312665,5.206968,1.890397,-7.712343,20.65,11.69,-3.57,48.985458,4.644221,188.20401,0.05025099999999938,-0.29193500000000006,-0.13639599999999952,5.1818425,2.0363644999999995,-7.644145,469,9.38,59
312685,5.34815,1.715715,-7.78413,18.48,14.0,-4.48,48.660427,3.614226,186.201187,0.14118200000000058,-0.174682,-0.07178700000000049,5.277559,1.8030559999999993,-7.7482365,470,9.4,59
312705,5.568297,1.696572,-7.650127,16.52,14.63,-5.32,48.769211,4.397696,186.759903,0.22014699999999987,-0.019143000000000132,0.13400299999999987,5.4582235,1.7061434999999994,-7.7171285,471,9.42,59
312725,5.558725,1.718108,-7.654913,14.21,12.32,-5.67,49.008144,4.089432,186.563477,-0.009572000000000358,0.021536,-0.004785999999999291,5.563511,1.7073399999999994,-7.65252,472,9.44,59
312745,5.573083,1.598463,-7.810452,12.39,9.87,-5.32,51.765804,3.086243,186.367172,0.014357999999999649,-0.119645,-0.1555390000000001,5.565904,1.6582854999999994,-7.732682499999999,473,9.46,59
312765,5.687943,1.569748,-7.769773,11.2,8.75,-5.6,50.574089,3.02827,186.645248,0.11486000000000018,-0.028715000000000046,0.04067899999999991,5.630512999999999,1.5841054999999993,-7.790112499999999,474,9.48,59
312785,5.68555,1.624785,-7.712343,10.5,7.35,-6.58,48.773922,4.398688,186.900238,-0.0023929999999996454,0.055037,0.05743000000000009,5.6867465,1.5972664999999993,-7.741058,475,9.5,59
312805,5.589833,1.643928,-7.640555,11.34,5.67,-7.14,50.285526,5.205792,187.313553,-0.0957170000000005,0.019143000000000132,0.07178799999999974,5.637691499999999,1.6343564999999993,-7.676449,476,9.52,59
312825,5.620941,1.734858,-7.645341,12.25,4.48,-7.35,50.991592,2.958599,186.770279,0.03110800000000058,0.09092999999999996,-0.004786000000000179,5.6053869999999995,1.6893929999999995,-7.6429480000000005,477,9.54,59
312845,5.731015,1.725287,-7.575947,13.58,4.06,-7.21,50.174995,2.822033,185.910431,0.110074,-0.009570999999999996,0.06939399999999996,5.675978,1.7300724999999995,-7.610644000000001,478,9.56,59
312865,5.790838,1.751609,-7.549625,13.72,3.64,-6.86,50.744129,4.305424,185.188278,0.05982299999999974,0.026321999999999957,0.0263220000000004,5.7609265,1.7384479999999993,-7.562786,479,9.58,59
312885,5.726229,1.675036,-7.568769,14.63,3.29,-6.51,51.196671,1.602852,187.089325,-0.06460899999999992,-0.076573,-0.019143999999999828,5.7585334999999995,1.7133224999999994,-7.559196999999999,480,9.6,59
312905,5.671192,1.631963,-7.528089,16.17,3.71,-6.23,51.348728,3.435788,187.413223,-0.05503700000000045,-0.04307299999999992,0.04068000000000005,5.698710499999999,1.6534994999999992,-7.548429,481,9.62,59
312925,5.637691,1.569748,-7.621412,15.89,4.69,-6.58,50.144203,4.695256,186.943619,-0.03350099999999934,-0.06221500000000013,-0.09332300000000071,5.654441499999999,1.6008554999999993,-7.5747505,482,9.64,59
312945,5.613762,1.517104,-7.657306,14.42,5.39,-7.07,52.211567,3.02252,187.334183,-0.023928999999999867,-0.05264399999999991,-0.03589399999999987,5.6257265,1.5434259999999993,-7.639359000000001,483,9.66,59
312964,5.635299,1.495568,-7.676449,12.67,5.74,-7.56,50.995872,2.679718,185.739517,0.021536999999999473,-0.021536,-0.019142999999999688,5.6245305,1.5063359999999992,-7.6668775,484,9.68,59
312984,5.589833,1.445316,-7.587912,11.97,5.95,-7.91,51.008682,1.362275,186.487198,-0.04546600000000023,-0.05025199999999996,0.08853699999999964,5.612565999999999,1.4704419999999994,-7.6321805000000005,485,9.7,59
313004,5.613762,1.368743,-7.57834,13.16,5.46,-8.61,50.060719,5.517031,187.930969,0.023929000000000755,-0.076573,0.009572000000000358,5.6017975,1.4070294999999993,-7.583126,486,9.72,59
313024,5.61137,1.318492,-7.56159,15.05,4.62,-9.24,51.051956,2.41174,186.25238,-0.002392000000000394,-0.050251000000000046,0.016750000000000043,5.612565999999999,1.3436174999999992,-7.569965,487,9.74,59
313044,5.652049,1.306528,-7.477838,16.52,3.78,-10.01,51.991928,4.09542,185.42305,0.04067899999999991,-0.011964000000000086,0.0837519999999996,5.6317094999999995,1.3125099999999992,-7.5197140000000005,488,9.76,59
313064,5.697514,1.313707,-7.451516,15.47,3.43,-10.71,50.962471,2.392905,183.586105,0.04546500000000009,0.0071790000000000465,0.0263220000000004,5.6747815,1.3101174999999992,-7.464677,489,9.78,59
313084,5.745372,1.306528,-7.391693,13.3,4.13,-10.92,50.321133,7.853563,187.642487,0.047857999999999734,-0.0071790000000000465,0.05982299999999974,5.721442999999999,1.3101174999999992,-7.4216045,490,9.8,59
313104,5.757337,1.284992,-7.3893,10.57,4.69,-10.29,50.586926,2.191625,183.552948,0.011965000000000003,-0.021536,0.0023929999999996454,5.7513545,1.2957599999999991,-7.3904965,491,9.82,59
313124,5.845874,1.249098,-7.449123,7.35,5.04,-9.03,50.590855,5.672075,186.412857,0.08853700000000053,-0.03589399999999987,-0.05982299999999974,5.801605499999999,1.2670449999999993,-7.4192115,492,9.84,59
313144,5.860232,1.253884,-7.420408,4.27,5.81,-7.42,51.597973,4.170047,185.999664,0.014357999999999649,0.004785999999999957,0.028715000000000046,5.853052999999999,1.2514909999999992,-7.4347655,493,9.86,59
313164,5.874589,1.371136,-7.542446,0.63,5.88,-5.25,51.104225,3.183314,185.127136,0.014357000000000397,0.11725199999999991,-0.12203799999999987,5.8674105,1.3125099999999992,-7.481427,494,9.88,59
313184,5.845874,1.392673,-7.48741,-1.75,5.6,-2.94,51.292645,3.703764,186.90036,-0.028715000000000046,0.02153700000000014,0.05503600000000031,5.860231499999999,1.3819044999999992,-7.514927999999999,495,9.9,59
313204,5.793231,1.426173,-7.528089,-2.31,5.18,-1.26,52.718155,3.172609,185.114426,-0.05264300000000066,0.03349999999999986,-0.04067899999999991,5.8195524999999995,1.4094229999999994,-7.507749499999999,496,9.92,59
313224,5.793231,1.385494,-7.499374,-1.4,5.11,-0.28,52.542976,1.61459,185.259964,0.0,-0.04067899999999991,0.028714999999999158,5.793231,1.4058334999999993,-7.5137315000000005,497,9.94,59
313244,5.831517,1.395065,-7.434765,-0.7,5.18,0.28,52.042877,3.546579,184.624496,0.038286000000000264,0.009570999999999996,0.0646090000000008,5.812373999999999,1.3902794999999992,-7.4670695,498,9.96,59
313264,5.85066,1.48121,-7.42998,0.49,4.9,0.84,49.871441,4.436835,183.815552,0.019143000000000576,0.08614499999999992,0.004785000000000039,5.8410885,1.4381374999999994,-7.4323725,499,9.98,59
313284,5.896125,1.567355,-7.418015,1.33,4.34,1.68,52.030926,5.423767,186.219009,0.0454649999999992,0.08614500000000014,0.011965000000000003,5.8733925,1.5242824999999993,-7.4239975,500,10.0,59
313304,5.872197,1.562569,-7.401265,1.82,3.85,2.31,51.087917,1.300179,182.690643,-0.023927999999999727,-0.004785999999999957,0.016749999999999154,5.884160999999999,1.5649619999999995,-7.40964,501,10.02,59
313324,5.958341,1.581712,-7.29837,3.43,3.64,3.01,51.546597,4.439016,185.627136,0.086144,0.01914299999999991,0.10289500000000018,5.9152689999999994,1.5721404999999993,-7.3498175,502,10.04,59
313344,5.915269,1.531461,-7.348621,3.85,3.22,3.57,50.802853,6.678278,185.04776,-0.043071999999999555,-0.050251000000000046,-0.05025099999999938,5.936805,1.5565864999999994,-7.3234955,503,10.06,59
313364,5.896125,1.536247,-7.415622,2.59,3.29,3.57,50.958305,7.191789,185.838684,-0.019144000000000716,0.004785999999999957,-0.06700100000000031,5.905697,1.5338539999999994,-7.3821215,504,10.08,59
313384,5.826731,1.569748,-7.458694,1.26,3.78,3.22,52.108383,3.280585,185.418015,-0.06939399999999996,0.033501,-0.04307200000000044,5.861427999999999,1.5529974999999991,-7.437158,505,10.1,59
313404,5.757337,1.576926,-7.425194,1.19,4.62,2.66,51.546597,4.439016,185.627136,-0.06939399999999996,0.007178000000000129,0.033500000000000085,5.792033999999999,1.5733369999999993,-7.441944,506,10.12,59
313424,5.800409,1.541033,-7.425194,1.47,5.18,2.31,52.087013,5.15579,186.731873,0.04307200000000044,-0.03589299999999995,0.0,5.778872999999999,1.5589794999999995,-7.425194,507,10.14,59
313444,5.848268,1.552997,-7.475445,1.33,5.6,2.17,50.922264,4.264145,184.338638,0.047858999999999874,0.011963999999999864,-0.05025099999999938,5.8243385,1.5470149999999994,-7.4503195,508,10.16,59
313464,5.98227,1.55539,-7.456302,0.84,5.95,1.89,50.32444,2.494933,183.047729,0.13400199999999973,0.0023930000000000895,0.019142999999999688,5.9152689999999994,1.5541934999999993,-7.4658735,509,10.18,59
313484,6.037307,1.541033,-7.434765,0.84,6.09,1.4,53.017456,2.317485,184.400085,0.05503700000000045,-0.014356999999999953,0.02153700000000036,6.009788499999999,1.5482114999999994,-7.4455335,510,10.2,59
313504,6.0397,1.524282,-7.437159,1.54,5.81,0.98,52.612007,5.02997,183.902328,0.0023929999999996454,-0.016751000000000182,-0.0023940000000006734,6.038503499999999,1.5326574999999993,-7.435962,511,10.22,59
313524,6.010985,1.478817,-7.441944,1.96,5.39,0.56,51.558544,2.561829,184.032623,-0.028715000000000046,-0.04546499999999987,-0.004785000000000039,6.025342499999999,1.5015494999999994,-7.4395515,512,10.24,59
313544,6.058843,1.476424,-7.415622,2.31,5.04,-0.21,52.563591,3.699641,182.825729,0.04785800000000062,-0.0023930000000000895,0.0263220000000004,6.034914,1.4776204999999993,-7.428783,513,10.26,59
313564,6.077987,1.450102,-7.329477,2.52,3.85,-1.33,54.144955,3.481072,186.841782,0.019143999999999828,-0.026321999999999957,0.08614500000000014,6.068415,1.4632629999999993,-7.3725495,514,10.28,59
313584,6.094737,1.519497,-7.336656,3.71,2.38,-1.96,51.493469,3.107696,184.410187,0.016750000000000043,0.0693950000000001,-0.007178999999999824,6.086361999999999,1.4847994999999994,-7.333066499999999,515,10.3,59
313604,6.09713,1.529068,-7.334263,5.18,1.26,-2.1,53.355755,2.790707,184.481705,0.0023929999999996454,0.009570999999999996,0.0023929999999996454,6.095933499999999,1.5242824999999995,-7.3354595,516,10.32,59
313624,6.054058,1.519497,-7.3893,6.23,0.28,-1.82,51.182137,1.800802,181.657257,-0.043071999999999555,-0.009570999999999996,-0.05503700000000045,6.075594,1.5242824999999995,-7.3617815,517,10.34,59
313644,5.953555,1.361565,-7.386907,6.02,-0.21,-1.61,51.95425,4.087489,184.300415,-0.10050300000000068,-0.15793200000000018,0.0023930000000005336,6.0038065,1.4405309999999993,-7.3881035,518,10.36,59
313664,5.900911,1.261063,-7.415622,4.34,0.14,-1.82,52.212025,3.78319,184.665298,-0.05264399999999991,-0.10050199999999987,-0.028715000000000046,5.927232999999999,1.3113139999999994,-7.4012645,519,10.38,59
313684,5.912876,1.225169,-7.334263,1.47,1.05,-2.24,53.321465,1.463353,183.82608,0.011965000000000003,-0.03589400000000009,0.08135899999999996,5.906893499999999,1.2431159999999992,-7.3749424999999995,520,10.4,59
313704,6.010985,1.335243,-7.305548,-1.89,1.82,-2.52,53.11211,3.097982,184.537811,0.098109,0.110074,0.028715000000000046,5.961930499999999,1.2802059999999993,-7.3199055,521,10.42,59
313724,6.077987,1.306528,-7.291191,-3.99,2.38,-2.73,52.177738,2.455836,184.009689,0.06700200000000045,-0.028715000000000046,0.014356999999999509,6.044485999999999,1.3208854999999993,-7.2983695,522,10.44,59
313744,6.109094,1.452495,-7.276834,-4.34,2.66,-2.45,52.737881,4.217117,184.177963,0.03110699999999955,0.14596700000000018,0.014357000000000397,6.0935405,1.3795114999999993,-7.2840125,523,10.46,59
313764,6.123452,1.560176,-7.236154,-2.94,2.52,-1.54,52.432121,3.47096,183.907547,0.014358000000000537,0.10768099999999992,0.04068000000000005,6.116273,1.5063354999999994,-7.256494,524,10.48,59
313784,6.214382,1.605641,-7.221797,-0.07,2.38,-0.56,52.292549,4.560713,184.382034,0.09092999999999929,0.04546500000000009,0.014357000000000397,6.1689169999999995,1.5829084999999994,-7.2289755,525,10.5,59
313804,6.211989,1.648714,-7.226583,3.01,1.54,0.14,52.863754,3.404263,184.453583,-0.0023929999999996454,0.04307299999999992,-0.004786000000000179,6.2131855,1.6271774999999993,-7.22419,526,10.52,59
313824,6.22874,1.648714,-7.248118,5.81,1.12,0.49,53.231628,5.20385,185.050491,0.016751000000000182,0.0,-0.021535000000000082,6.2203645,1.648714,-7.2373505,527,10.54,59
313844,6.161738,1.59607,-7.185903,6.86,0.28,0.91,53.934307,4.276082,184.040207,-0.06700200000000045,-0.05264399999999991,0.06221500000000013,6.195238999999999,1.6223919999999994,-7.2170105,528,10.56,59
313864,6.09713,1.591284,-7.291191,5.88,-0.42,1.47,53.529613,3.028311,184.662857,-0.06460799999999978,-0.004786000000000179,-0.10528800000000071,6.129434,1.5936769999999993,-7.2385470000000005,529,10.58,59
313884,6.030128,1.59607,-7.25769,4.06,-0.21,1.75,51.984608,1.934394,182.09613,-0.06700199999999956,0.004786000000000179,0.033501000000000225,6.063629,1.5936769999999993,-7.274440500000001,530,10.6,59
313904,5.970306,1.61282,-7.319906,2.24,0.28,1.47,53.87558,1.903227,184.180725,-0.059822000000000486,0.01674999999999982,-0.06221599999999938,6.000216999999999,1.6044449999999992,-7.288798,531,10.62,59
313924,5.975091,1.610427,-7.284012,0.63,1.33,0.49,53.342945,4.10815,183.734024,0.004785000000000039,-0.0023929999999998675,0.03589399999999987,5.9726985,1.6116234999999994,-7.301959,532,10.64,59
313944,5.96552,1.576926,-7.24094,0.0,1.96,-0.28,52.031277,1.664435,182.328323,-0.009571000000000218,-0.033501,0.043071999999999555,5.970305499999999,1.5936764999999995,-7.2624759999999995,533,10.66,59
313964,6.073201,1.452495,-7.255297,-0.91,2.73,-1.05,50.946701,5.309645,183.542511,0.10768100000000036,-0.12443099999999996,-0.014356999999999509,6.0193604999999994,1.5147104999999994,-7.2481185,534,10.68,59
313984,6.221561,1.416602,-7.173938,-2.8,3.15,-1.89,52.64323,3.43662,184.040237,0.14836000000000027,-0.035893000000000175,0.08135899999999996,6.147380999999999,1.4345484999999993,-7.214617499999999,535,10.7,59
314004,6.281384,1.483603,-7.130866,-4.34,2.52,-1.82,50.89444,4.538071,184.667755,0.05982299999999974,0.06700100000000009,0.043071999999999555,6.2514725,1.4501024999999994,-7.152402,536,10.72,59
314024,6.314885,1.600855,-7.114116,-3.43,1.47,-1.12,50.851189,3.969402,181.062592,0.033501000000000225,0.11725199999999991,0.016750000000000043,6.2981345,1.5422289999999994,-7.122491,537,10.74,59
314044,6.310099,1.775538,-7.145224,-1.05,0.84,0.0,50.924015,5.864434,185.18306,-0.004786000000000179,0.17468300000000014,-0.03110799999999969,6.312492,1.6881964999999992,-7.12967,538,10.76,59
314064,6.207203,1.722894,-7.238547,2.73,0.84,1.12,52.363655,5.336252,183.8181,-0.10289600000000032,-0.052644000000000135,-0.09332299999999982,6.2586509999999995,1.7492159999999992,-7.1918855,539,10.78,59
314084,6.094737,1.608034,-7.252904,6.3,1.05,1.68,52.325516,4.567652,185.364349,-0.11246599999999951,-0.11485999999999996,-0.014357000000000397,6.150969999999999,1.6654639999999992,-7.2457255,540,10.8,59
314104,6.135417,1.478817,-7.243333,7.7,1.75,1.19,50.457664,4.323903,182.810303,0.04068000000000005,-0.12921699999999992,0.009571000000000218,6.115076999999999,1.5434254999999992,-7.2481185,541,10.82,59
314124,6.094737,1.363958,-7.295977,6.79,1.89,0.28,53.782677,2.723019,184.887405,-0.04068000000000005,-0.11485900000000004,-0.05264399999999991,6.115076999999999,1.4213874999999994,-7.269655,542,10.84,59
314144,6.159346,1.340029,-7.245726,4.41,1.4,-0.28,53.282578,4.655008,184.251938,0.06460899999999992,-0.02392900000000009,0.05025099999999938,6.1270415,1.3519934999999994,-7.2708515,543,10.86,59
314164,6.094737,1.351993,-7.231368,1.47,1.26,-0.91,54.625786,1.265245,185.744827,-0.06460899999999992,0.011964000000000086,0.014358000000000537,6.1270415,1.3460109999999994,-7.2385470000000005,544,10.88,59
314184,6.037307,1.387887,-7.28162,-0.56,1.47,-1.54,50.802422,6.398406,183.876663,-0.05743000000000009,0.03589400000000009,-0.05025200000000041,6.066022,1.3699399999999993,-7.256494,545,10.9,59
314204,6.032521,1.476424,-7.233761,-0.77,2.31,-1.89,52.468937,2.919145,182.688004,-0.004786000000000179,0.08853699999999987,0.047858999999999874,6.034914,1.4321554999999995,-7.257690500000001,546,10.92,59
314224,6.066022,1.574534,-7.238547,-0.42,3.15,-2.45,53.464104,3.294305,183.869324,0.033501000000000225,0.09811000000000014,-0.004785999999999291,6.0492715,1.5254789999999994,-7.236154,547,10.94,59
314244,6.09713,1.531461,-7.195475,0.21,4.06,-3.01,50.631523,4.561506,182.99144,0.03110799999999969,-0.04307300000000014,0.043071999999999555,6.081576,1.5529974999999994,-7.217010999999999,548,10.96,59
314264,6.204811,1.55539,-7.243333,0.7,4.83,-3.43,53.985683,4.007113,184.41275,0.10768100000000036,0.02392900000000009,-0.047857999999999734,6.1509705,1.5434254999999992,-7.219404,549,10.98,59
314284,6.180882,1.564962,-7.171546,0.91,5.39,-4.2,52.15419,2.450879,183.308029,-0.023928999999999867,0.009571999999999914,0.0717869999999996,6.1928465,1.5601759999999993,-7.2074394999999996,550,11.0,59
314304,6.276598,1.610427,-7.071043,0.42,5.04,-4.97,55.141899,5.937317,185.027527,0.09571599999999947,0.04546500000000009,0.10050299999999979,6.22874,1.5876944999999993,-7.1212945,551,11.02,59
314324,6.345992,1.567355,-7.114116,-0.63,4.69,-5.67,53.497074,3.301244,184.851639,0.06939399999999996,-0.043072,-0.043072999999999695,6.311294999999999,1.5888909999999994,-7.0925795,552,11.04,59
314344,6.369921,1.562569,-7.032757,-0.77,3.64,-5.6,53.172047,2.27125,182.848816,0.023928999999999867,-0.004785999999999957,0.08135899999999996,6.357956499999999,1.5649619999999995,-7.0734365,553,11.06,59
314364,6.43453,1.62957,-7.049507,-0.56,2.38,-5.11,52.737453,3.937243,183.006866,0.06460899999999992,0.06700099999999987,-0.016750000000000043,6.402225499999999,1.5960694999999994,-7.041132,554,11.08,59
314384,6.410601,1.62957,-7.030364,0.7,1.33,-4.2,53.836262,4.81501,183.435471,-0.023928999999999867,0.0,0.019143000000000576,6.422565499999999,1.62957,-7.0399355,555,11.1,59
314404,6.374707,1.67025,-7.006435,1.54,0.21,-2.73,54.2015,3.973765,184.68576,-0.03589399999999987,0.04068000000000005,0.023928999999999867,6.392653999999999,1.6499099999999993,-7.018399499999999,556,11.12,59
314424,6.317277,1.584105,-7.092579,1.96,0.07,-1.96,54.494881,6.317236,185.379593,-0.05743000000000009,-0.08614499999999992,-0.086144,6.345991999999999,1.6271774999999993,-7.049507,557,11.14,59
314444,6.221561,1.608034,-7.059079,1.19,0.56,-1.68,53.55405,4.07381,183.866714,-0.09571599999999947,0.023928999999999867,0.033500000000000085,6.269418999999999,1.5960694999999994,-7.075829,558,11.16,59
314464,6.231133,1.655892,-7.090187,0.56,1.4,-1.54,54.258476,4.74633,183.700836,0.00957199999999947,0.047857999999999956,-0.03110800000000058,6.226347,1.6319629999999994,-7.074633,559,11.18,59
314484,6.214382,1.663071,-7.049507,-0.07,1.89,-1.68,53.450867,4.331874,181.950546,-0.016751000000000182,0.0071790000000000465,0.04068000000000005,6.222757499999999,1.6594814999999992,-7.069847,560,11.2,59
314504,6.216775,1.768359,-6.939434,-1.33,1.54,-1.4,52.582428,3.703606,183.387039,0.0023930000000005336,0.10528800000000005,0.11007299999999987,6.2155784999999995,1.7157149999999994,-6.9944705,561,11.22,59
314524,6.295741,1.864075,-6.984899,-1.54,1.05,-1.33,52.93618,5.500218,183.562973,0.07896599999999943,0.09571599999999991,-0.04546500000000009,6.256257999999999,1.8162169999999993,-6.9621665,562,11.24,59
314544,6.271812,1.842539,-7.061472,-0.35,0.77,-0.7,53.597328,5.123274,183.631912,-0.023928999999999867,-0.021536,-0.07657299999999978,6.283776499999999,1.8533069999999991,-7.0231855,563,11.26,59
314564,6.173703,1.840146,-7.071043,1.68,0.91,0.21,53.527542,5.668151,183.869141,-0.098109,-0.0023929999999998675,-0.009571000000000218,6.222757499999999,1.8413424999999992,-7.066257500000001,564,11.28,59
314584,6.190453,1.816217,-7.032757,2.38,1.89,0.98,56.064217,3.936649,185.928375,0.016750000000000043,-0.02392900000000009,0.038286000000000264,6.182077999999999,1.8281814999999995,-7.0519,565,11.3,59
314604,6.11388,1.768359,-7.078222,2.52,2.66,1.12,54.866928,3.317938,183.723938,-0.07657299999999978,-0.047857999999999956,-0.04546500000000009,6.1521665,1.7922879999999992,-7.0554895,566,11.32,59
314624,6.09713,1.72768,-7.118902,2.59,3.5,0.77,53.097549,2.815134,182.945724,-0.016750000000000043,-0.04067899999999991,-0.04068000000000005,6.105504999999999,1.7480194999999994,-7.098562,567,11.34,59
314644,6.034914,1.701358,-7.123687,2.38,4.83,-0.07,53.560081,5.395216,183.680359,-0.06221600000000027,-0.02632200000000018,-0.004785000000000039,6.066021999999999,1.7145189999999992,-7.1212945,568,11.36,59
314664,6.178489,1.687,-7.102151,1.89,6.02,-1.26,52.080582,4.035306,181.907166,0.14357500000000023,-0.01435799999999987,0.02153600000000022,6.1067015,1.6941789999999992,-7.112919,569,11.38,59
314684,6.240705,1.658285,-7.121294,1.05,6.37,-2.73,52.603477,6.068531,182.123886,0.06221600000000027,-0.028715000000000046,-0.019142999999999688,6.209597,1.6726424999999994,-7.1117225,570,11.4,59
314704,6.357957,1.658285,-7.0519,-0.07,6.79,-3.5,54.910206,4.367403,183.48912,0.11725199999999969,0.0,0.06939399999999996,6.299331,1.658285,-7.086596999999999,571,11.42,59
314724,6.456066,1.754002,-6.963363,-1.19,7.14,-4.2,53.606319,4.845385,182.74147,0.098109,0.09571700000000005,0.08853699999999964,6.407011499999999,1.7061434999999994,-7.0076315000000005,572,11.44,59
314744,6.537425,1.87604,-6.901147,-2.24,7.07,-4.06,51.54969,7.840518,182.304886,0.08135899999999996,0.12203799999999987,0.06221600000000027,6.496745499999999,1.8150209999999993,-6.932255,573,11.46,59
314764,6.769537,1.864075,-6.913112,-2.1,6.16,-3.57,54.162502,2.645418,183.889801,0.23211199999999987,-0.011965000000000003,-0.011965000000000003,6.653480999999999,1.8700574999999993,-6.9071295,574,11.48,59
314784,6.666642,1.864075,-6.82936,-1.68,4.83,-2.8,54.267899,4.748313,183.981506,-0.10289499999999929,0.0,0.0837519999999996,6.7180895,1.864075,-6.871236,575,11.5,59
314804,6.680999,1.847325,-6.884397,-0.42,3.15,-1.96,53.405949,6.202122,182.562759,0.014356999999999509,-0.01674999999999982,-0.05503699999999956,6.6738205,1.8556999999999992,-6.8568785000000005,576,11.52,59
314824,6.597248,1.899969,-6.836538,1.12,1.61,-1.4,51.970158,6.17155,181.725845,-0.08375100000000035,0.05264399999999991,0.047858999999999874,6.639123499999999,1.8736469999999994,-6.8604675,577,11.54,59
314844,6.568533,1.895183,-6.860467,2.1,0.28,-1.12,55.344799,2.701409,183.33107,-0.028714999999999158,-0.004785999999999957,-0.023928999999999867,6.5828904999999995,1.8975759999999995,-6.8485025,578,11.56,59
314864,6.52546,1.914326,-6.860467,2.31,-0.7,-0.91,54.902534,5.965709,184.052872,-0.04307300000000058,0.01914299999999991,0.0,6.5469965,1.9047544999999992,-6.860467,579,11.58,59
314884,6.520675,1.907148,-6.879611,2.45,-1.12,-0.84,54.306461,5.796786,183.606354,-0.004785000000000039,-0.007177999999999907,-0.019143999999999828,6.5230675,1.9107369999999992,-6.870039,580,11.6,59
314904,6.465638,1.890397,-6.886789,1.89,-0.98,-0.91,53.471455,5.936128,183.356277,-0.05503699999999956,-0.01675099999999996,-0.007178000000000573,6.4931564999999996,1.8987724999999993,-6.8832,581,11.62,59
314924,6.429744,1.93347,-6.850896,1.4,-0.7,-1.12,54.014832,5.053604,183.756943,-0.03589399999999987,0.04307299999999992,0.03589300000000062,6.447691,1.9119334999999995,-6.8688424999999995,582,11.64,59
314944,6.398636,1.935863,-6.882004,1.54,-0.56,-1.05,54.259796,6.066746,183.374161,-0.03110800000000058,0.0023929999999998675,-0.03110800000000058,6.41419,1.9346664999999992,-6.86645,583,11.66,59
314964,6.345992,1.93347,-6.944219,2.17,-0.49,-1.33,54.845131,4.913271,183.866684,-0.05264399999999991,-0.0023929999999998675,-0.06221500000000013,6.372313999999999,1.9346664999999992,-6.9131115,584,11.68,59
314984,6.381886,1.931077,-6.939434,2.59,-0.14,-1.75,55.538815,4.263392,183.746841,0.03589399999999987,-0.0023930000000000895,0.004785000000000039,6.363938999999999,1.9322734999999993,-6.9418265,585,11.7,59
315004,6.39385,1.940648,-6.889183,2.73,0.14,-1.96,52.882732,8.409028,182.396729,0.011963999999999864,0.009570999999999996,0.05025100000000027,6.387867999999999,1.9358624999999994,-6.914308500000001,586,11.72,59
315024,6.396243,1.959792,-6.915504,3.22,0.14,-1.96,55.586803,5.313849,183.652359,0.0023930000000005336,0.01914400000000005,-0.02632100000000026,6.395046499999999,1.9502199999999994,-6.902343500000001,587,11.74,59
315044,6.405815,2.000471,-6.915504,3.43,0.07,-1.96,54.346672,3.925547,182.853821,0.00957199999999947,0.04067900000000013,0.0,6.401028999999999,1.9801314999999995,-6.915504,588,11.76,59
315064,6.391458,1.895183,-6.934648,3.85,0.42,-1.96,53.390499,4.878733,182.46846,-0.014356999999999509,-0.10528800000000005,-0.019143999999999828,6.398636499999999,1.9478269999999998,-6.925076000000001,589,11.78,59
315084,6.39385,1.904755,-6.891575,3.99,0.84,-2.17,55.51659,5.578852,182.718506,0.0023919999999995056,0.009571999999999914,0.04307300000000058,6.392653999999999,1.8999689999999996,-6.913111499999999,590,11.8,59
315104,6.362742,1.878433,-6.949005,3.78,0.91,-2.59,53.447903,5.931171,182.654633,-0.03110799999999969,-0.026321999999999957,-0.05743000000000009,6.378295999999999,1.8915939999999996,-6.92029,591,11.82,59
315124,6.396243,1.854504,-6.90354,3.22,0.91,-2.59,52.375282,7.699194,182.274292,0.033501000000000225,-0.02392900000000009,0.04546500000000009,6.3794925,1.8664684999999994,-6.9262725,592,11.84,59
315144,6.472816,1.85929,-6.870039,2.73,0.49,-2.59,53.857738,7.459807,183.343414,0.07657299999999978,0.004786000000000179,0.03350099999999934,6.4345295,1.8568969999999996,-6.8867895,593,11.86,59
315164,6.503924,1.828182,-6.898754,2.66,0.0,-2.17,53.665363,2.97811,182.550247,0.03110799999999969,-0.031108000000000136,-0.028715000000000046,6.48837,1.8437359999999996,-6.8843965,594,11.88,59
315184,6.463245,1.856897,-6.915504,2.73,-0.42,-1.47,54.362549,5.528809,184.119217,-0.04067899999999991,0.028715000000000046,-0.016750000000000043,6.483584499999999,1.8425394999999996,-6.907129,595,11.9,59
315204,6.432137,1.809039,-6.908326,3.36,-0.77,-0.84,52.607758,5.789649,181.093124,-0.03110799999999969,-0.047857999999999956,0.007178000000000573,6.447690999999999,1.8329679999999997,-6.9119150000000005,596,11.92,59
315224,6.424958,1.806646,-6.84611,4.27,-0.49,-0.49,53.083099,7.052289,182.575439,-0.007178999999999824,-0.0023930000000000895,0.06221599999999938,6.4285475,1.8078424999999996,-6.877218,597,11.94,59
315244,6.415387,1.770752,-6.898754,4.76,-0.56,-0.35,54.351059,8.166667,183.044861,-0.009571000000000218,-0.03589399999999987,-0.05264399999999991,6.4201725,1.7886989999999996,-6.872432,598,11.96,59
315264,6.384279,1.787502,-6.90354,4.13,-0.56,-0.28,53.458645,7.25357,182.608597,-0.03110799999999969,0.01674999999999982,-0.004785999999999291,6.399832999999999,1.7791269999999995,-6.901147,599,11.98,59
315284,6.372314,1.832968,-6.901147,3.15,-0.07,-0.49,55.290462,4.569675,183.662613,-0.011965000000000003,0.045466000000000006,0.0023929999999996454,6.378296499999999,1.8102349999999996,-6.9023435,600,12.0,59
315304,6.336421,1.871254,-6.905933,2.87,0.28,-0.56,53.437164,4.608773,182.700653,-0.03589300000000062,0.03828600000000004,-0.004786000000000179,6.3543674999999995,1.8521109999999994,-6.90354,601,12.02,59
