Timestamp,acc_x,acc_y,acc_z,gyro_x,gyro_y,gyro_z,magn_x,magn_y,magn_z
1934282,-8.920761,0.126824,3.350071,9.520000,-5.110000,-9.030000,45.281490,-217.003204,-37.649212
1934302,-8.947083,0.119645,3.385965,13.090000,-4.970000,-11.340000,44.671288,-217.175095,-38.516708
1934322,-8.994942,0.126824,3.484074,15.820000,-4.830000,-13.510000,43.418346,-217.245941,-40.062923
1934342,-9.071514,0.119645,3.441002,17.710001,-5.040000,-15.260000,45.279739,-218.603500,-38.493618
1934357,-9.152873,0.165111,3.395537,18.900000,-5.390000,-16.730000,46.167877,-217.411514,-37.026596
1934377,-8.971012,0.227326,3.551076,20.020000,-6.230000,-18.760000,42.150814,-218.080475,-39.361244
1934397,-8.851367,0.220148,3.500824,20.719999,-7.140000,-20.510000,47.334721,-218.678894,-37.679638
1934417,-8.762830,0.148360,3.359643,21.210001,-6.860000,-22.190001,45.299011,-218.319641,-36.761204
1934432,-8.786758,0.155539,3.256748,21.139999,-7.000000,-23.870001,45.096893,-218.563217,-37.784325
1934452,-8.659934,0.172289,3.251962,20.230000,-7.420000,-25.410000,45.832539,-219.484039,-37.812294
1934472,-8.542682,0.114860,3.299820,18.900000,-7.000000,-26.880001,45.484821,-219.959244,-38.174576
1934492,-8.645576,-0.145967,3.261534,18.480000,-5.320000,-28.139999,44.632397,-213.983444,-38.090862
1934507,-8.607290,-0.270399,3.170603,20.440001,-3.850000,-29.820000,45.264290,-219.926895,-38.587921
1934527,-8.449359,-0.437902,3.158639,23.379999,-1.260000,-31.500000,45.073772,-218.288284,-37.314880
1934547,-8.621648,-0.605406,3.268713,27.160000,2.380000,-32.130001,44.221565,-221.072632,-38.503666
1934567,-9.018870,-0.720265,3.306999,31.920000,5.040000,-32.619999,45.241173,-219.651978,-38.118477
1934582,-9.102622,-0.744194,3.084459,36.049999,6.230000,-33.040001,46.238979,-216.635971,-37.590527
1934602,-8.973405,-0.646085,2.986349,37.730000,7.140000,-33.740002,48.533649,-220.979919,-35.852589
1934622,-8.839402,-0.772909,2.979171,36.750000,8.820000,-34.790001,46.124168,-218.740860,-37.962879
1934642,-9.090658,-1.014593,2.969599,37.240002,10.710000,-35.840000,46.340416,-218.494324,-36.518772
1934657,-9.160052,-1.064844,2.849954,40.950001,11.340000,-37.520000,46.128880,-218.739868,-37.822552
1934677,-8.966227,-0.983485,2.732701,44.099998,12.390000,-39.480000,46.063805,-218.193985,-37.444981
1934697,-9.172017,-1.119881,2.663307,45.290001,14.700000,-40.180000,45.107632,-217.240799,-37.830349
1934717,-9.645813,-1.241919,2.548447,47.529999,16.660000,-39.759998,47.538483,-221.355087,-37.033913
1934732,-9.944926,-1.184489,2.479053,50.119999,17.639999,-39.619999,44.775791,-216.112747,-36.927235
1934752,-9.978427,-1.081594,2.357014,50.400002,17.920000,-39.970001,44.601395,-221.150238,-39.501270
1934772,-9.916211,-1.139024,2.249334,49.910000,18.969999,-40.110001,47.909748,-220.874924,-35.969982
1934792,-10.205753,-1.148596,2.325907,50.820000,20.440001,-40.599998,46.558762,-220.406860,-38.120934
1934807,-10.311041,-1.261063,2.368979,52.849998,20.230000,-41.720001,45.120441,-218.558258,-37.082672
1934827,-10.078929,-1.323278,2.299585,55.160000,19.320000,-42.000000,47.038815,-219.143219,-36.498291
1934847,-10.153109,-1.328064,2.285227,57.189999,19.879999,-40.810001,46.340416,-218.494324,-36.518772
1934867,-10.638869,-1.354386,2.177546,59.010002,19.740000,-38.150002,46.878651,-219.657730,-37.429535
1934882,-10.653227,-1.380708,2.077044,60.340000,17.850000,-35.209999,46.477028,-217.984772,-36.289177
1934902,-10.425900,-1.332850,1.993292,59.990002,15.750000,-32.480000,47.595890,-220.302643,-36.847733
1934922,-9.980820,-1.332850,2.000471,57.959999,14.420000,-29.610001,45.209957,-218.058609,-38.256382
1934942,-9.729565,-1.541033,2.031579,55.930000,14.280000,-26.809999,48.605183,-219.924515,-35.245419
1934958,-9.497452,-1.727680,1.866468,56.139999,14.140000,-25.059999,49.213207,-221.632782,-36.393429
1934978,-9.320377,-1.754002,1.809039,58.730000,13.580000,-23.379999,48.018105,-220.371323,-36.582363
1934998,-9.164838,-1.751609,1.811431,61.950001,13.090000,-22.049999,45.659111,-219.441772,-36.822342
1935018,-9.061943,-1.823396,1.768359,65.169998,12.390000,-20.790001,48.246296,-222.001984,-36.732773
1935033,-9.088264,-1.895183,1.653499,68.180000,12.110000,-19.600000,47.453247,-222.133591,-36.890972
1935053,-9.332341,-1.878433,1.706143,70.559998,12.040000,-17.990000,46.202164,-216.084152,-36.370975
1935073,-10.026285,-1.691786,1.698965,70.279999,11.550000,-15.680000,45.617149,-219.170822,-36.914215
1935093,-10.490509,-1.454888,1.529068,64.820000,8.820000,-13.860000,45.633030,-217.567535,-35.648819
1935108,-10.342149,-1.296956,1.517104,54.250000,5.530000,-13.510000,47.711563,-217.638000,-34.133186
1935128,-9.973641,-1.584105,1.622392,43.680000,4.550000,-13.160000,49.651730,-219.818314,-33.691563
1935148,-9.765458,-1.935863,1.720501,39.619999,5.530000,-13.370000,49.690727,-218.489960,-32.895607
1935168,-9.550097,-1.955006,1.840146,41.650002,7.000000,-14.140000,49.962093,-223.591171,-34.502625
1935183,-9.322770,-2.086616,1.876040,48.160000,9.030000,-14.700000,47.211784,-219.946152,-34.819366
1935203,-9.160052,-2.232583,1.895183,57.610001,10.990000,-14.700000,48.417629,-219.885208,-34.676453
1935223,-9.200731,-2.345050,1.818610,69.230003,13.020000,-14.210000,47.192944,-219.950119,-35.380688
1935243,-9.270126,-2.311549,1.732466,81.480003,14.560000,-12.740000,47.942287,-221.147858,-36.158768
1935258,-9.284483,-2.120116,1.514711,91.279999,15.820000,-10.850000,50.055534,-219.611084,-32.816418
1935278,-9.712814,-1.926291,1.538640,94.709999,17.219999,-8.820000,47.672565,-218.966370,-34.929138
1935298,-10.394793,-1.608034,1.490782,91.419998,17.360001,-6.020000,49.193909,-222.397400,-34.285866
1935318,-10.521617,-1.543426,1.454888,82.739998,15.260000,-2.940000,48.797882,-219.682938,-34.502960
1935333,-10.337363,-1.466853,1.442924,70.209999,12.950000,0.770000,48.529804,-220.421158,-33.650723
1935353,-10.059786,-1.536247,1.560176,56.700001,11.410000,5.250000,48.385090,-219.612274,-34.487667
1935373,-9.767851,-1.758787,1.648714,45.150002,10.080000,9.450000,49.676918,-222.733063,-33.367302
1935393,-9.564454,-1.971756,1.720501,38.080002,8.960000,13.160000,48.441608,-219.600388,-32.803707
1935408,-9.327556,-2.060294,1.713322,36.189999,7.700000,15.960000,49.072746,-221.583557,-34.421162
1935428,-9.148088,-2.093795,1.725287,37.099998,6.580000,17.780001,47.882351,-220.321121,-34.469769
1935448,-9.088264,-2.038758,1.701358,38.009998,5.950000,18.830000,50.314522,-223.114975,-34.000019
1935468,-9.361056,-1.971756,1.773145,37.520000,5.320000,19.530001,48.944344,-218.891525,-32.821609
1935483,-9.765458,-1.770752,1.777931,34.230000,3.990000,19.389999,49.167831,-220.523193,-33.112343
1935503,-10.071750,-1.608034,1.792288,26.389999,1.610000,17.990000,47.261410,-221.815414,-35.291245
1935523,-10.232075,-1.464460,1.763573,14.350000,-1.330000,15.610000,47.886627,-220.600006,-35.500538
1935543,-10.390007,-1.402244,1.725287,0.280000,-4.270000,12.390000,48.033092,-219.808594,-33.819180
1935558,-10.215324,-1.438138,1.761180,-14.140000,-7.630000,7.980000,47.253738,-220.217102,-34.727489
1935578,-9.887496,-1.407030,1.768359,-27.580000,-10.430000,2.730000,51.132870,-221.378113,-32.295753
1935598,-9.528560,-1.435745,1.821003,-38.709999,-12.530000,-2.660000,50.470402,-222.321594,-32.038006
1935618,-9.207911,-1.552997,1.801860,-46.480000,-13.930000,-7.910000,46.432865,-220.074783,-34.556576
1935633,-8.990156,-1.725287,1.911934,-50.750000,-14.560000,-12.460000,49.668819,-221.414642,-33.974651
1935653,-8.887260,-1.931077,1.909541,-52.080002,-14.210000,-14.700000,47.658863,-218.689453,-34.179035
1935673,-9.093051,-2.132081,1.914326,-50.259998,-12.320000,-14.350000,48.455307,-219.877274,-33.553810
1935693,-9.404129,-2.285227,2.017221,-44.799999,-10.500000,-11.760000,47.857483,-221.646484,-34.844730
1935708,-9.509417,-2.400087,2.053115,-37.099998,-8.190000,-7.140000,50.006229,-221.981964,-32.395248
1935728,-9.909033,-2.526911,2.026793,-28.350000,-4.340000,-0.980000,47.150097,-220.719727,-33.974777
1935748,-10.612547,-2.586734,2.251727,-18.969999,-0.140000,6.160000,47.553040,-221.072235,-35.441822
1935768,-10.495295,-2.254119,2.445552,-10.780000,-0.490000,12.740000,48.752861,-222.332687,-35.112556
1935784,-9.155267,-1.777931,2.395301,-8.470000,-2.520000,16.170000,46.348946,-219.532883,-34.740326
1935804,-8.332106,-1.670250,2.093795,-14.070000,-1.260000,16.309999,47.173645,-220.714767,-33.273129
1935824,-8.097601,-1.777931,2.146439,-22.190001,1.820000,14.350000,47.306435,-219.165665,-34.681644
1935844,-8.114351,-2.294799,2.400087,-23.870001,5.390000,10.990000,47.765469,-219.786163,-35.635826
1935859,-8.494823,-2.998314,2.696807,-12.180000,9.240000,8.260000,47.131256,-220.723679,-34.536098
1935879,-9.100229,-3.137103,2.976778,10.220000,12.390000,6.580000,48.405571,-222.528015,-34.303738
1935899,-9.875532,-2.680057,3.242390,34.790001,13.370000,6.020000,50.543259,-219.945755,-31.757524
1935919,-10.401972,-2.357014,3.029422,53.619999,10.920000,5.810000,49.600674,-223.789474,-34.114803
1935934,-10.519224,-2.261298,2.885847,62.930000,5.390000,3.080000,46.405033,-219.800873,-34.227463
1935954,-10.081322,-1.969363,2.759023,64.050003,-1.260000,-1.120000,47.226345,-219.663315,-33.227280
1935974,-9.617098,-1.392673,2.699200,56.770000,-6.160000,-6.090000,48.713509,-219.901718,-32.017826
1935994,-9.461558,-1.182097,2.814060,43.400002,-9.590000,-12.740000,46.358368,-219.530899,-34.459663
1936009,-9.516596,-1.380708,2.890633,30.030001,-12.670000,-20.719999,44.999142,-222.745209,-34.599789
1936029,-9.614705,-1.481210,2.821239,20.930000,-15.540000,-28.070000,44.915768,-217.403412,-32.390644
1936049,-9.765458,-1.631963,2.682450,16.240000,-18.129999,-34.160000,45.504948,-219.115662,-34.099968
1936069,-9.839638,-1.777931,2.553233,16.170000,-20.650000,-38.779999,45.715279,-215.670532,-31.247700
1936084,-9.954497,-1.830575,2.452731,19.389999,-22.540001,-42.139999,45.505379,-218.835785,-32.928875
1936104,-10.141145,-1.811431,2.404873,23.450001,-23.940001,-44.660000,46.095852,-219.708389,-31.124910
1936124,-10.198574,-1.500353,2.325907,25.760000,-25.270000,-45.779999,43.408009,-218.769287,-35.005821
1936144,-9.901854,-1.206026,2.306763,22.960001,-27.020000,-46.480000,44.730740,-219.243301,-33.696850
1936159,-9.581204,-1.127060,2.215833,15.400000,-27.160000,-46.759998,47.198402,-223.909393,-34.119968
1936179,-9.545310,-1.407030,2.084223,7.070000,-26.180000,-47.180000,44.536285,-221.085159,-35.283722
1936199,-9.351485,-1.529068,2.134474,1.260000,-25.059999,-46.270000,44.102558,-218.859421,-32.783478
1936219,-9.674527,-1.538640,2.086616,-0.560000,-22.889999,-44.310001,43.683300,-220.390030,-33.752926
1936234,-9.485488,-1.603248,2.053115,-0.420000,-22.610001,-41.860001,44.124355,-220.454742,-32.926239
1936254,-9.002120,-1.574534,2.043544,0.210000,-21.139999,-38.639999,43.723942,-221.981400,-33.334366
1936274,-9.143302,-1.648714,2.086616,1.610000,-18.059999,-34.439999,42.826820,-222.895477,-33.910950
1936294,-8.980584,-1.648714,2.062687,2.870000,-16.379999,-29.889999,41.980316,-220.118286,-35.235390
1936309,-8.932726,-1.615213,1.993292,3.780000,-12.810000,-25.059999,43.438339,-221.403168,-33.370140
1936329,-8.942298,-1.598463,1.931077,3.640000,-10.150000,-20.580000,43.121410,-223.751602,-34.765614
1936349,-8.542682,-1.524282,1.907148,1.330000,-7.420000,-15.470000,41.333622,-223.978485,-34.934044
1936369,-8.444572,-1.660678,1.969363,-2.870000,-2.730000,-8.470000,41.594036,-221.641968,-35.222530
1936384,-8.631220,-1.933470,2.141653,-5.320000,1.470000,-0.770000,43.317177,-220.589325,-33.505432
1936404,-8.463716,-1.926291,2.218226,-3.640000,4.620000,7.560000,42.583492,-226.828339,-33.905552
1936424,-8.253140,-1.701358,1.969363,-2.940000,7.840000,16.030001,42.609360,-219.942429,-33.806576
1936444,-8.293819,-1.734858,2.029186,-7.980000,10.920000,23.660000,42.443169,-221.778336,-34.551464
1936459,-8.703007,-2.474267,2.491017,-17.430000,11.550000,29.469999,42.775440,-222.626511,-34.283485
1936479,-8.810688,-2.960027,2.706379,-22.120001,11.130000,34.230000,45.936016,-224.463013,-32.106865
1936499,-9.009299,-2.916955,2.615448,-21.210001,12.530000,37.799999,42.601582,-222.864120,-34.464622
1936519,-9.289269,-2.445552,2.759023,-24.990000,11.340000,40.599998,41.150017,-219.977951,-35.345139
1936534,-9.236626,-2.225405,2.766202,-36.259998,10.920000,41.580002,43.731613,-223.579697,-33.898113
1936554,-9.344306,-2.043544,2.890633,-49.490002,11.340000,40.950001,43.175854,-221.099869,-33.875359
1936574,-9.408915,-2.357014,3.017457,-61.389999,10.710000,37.099998,42.787498,-219.983704,-34.656200
1936594,-9.296448,-2.493410,3.125138,-66.849998,11.200000,33.810001,43.282890,-221.916687,-34.161057
1936609,-9.590775,-2.555626,3.139495,-66.570000,13.650000,30.799999,44.819363,-219.784210,-33.372772
1936629,-10.035856,-2.931312,3.256748,-60.130001,15.680000,28.280001,43.171146,-221.100861,-34.015690
1936649,-9.904246,-2.773381,3.082066,-49.560001,16.520000,26.460001,44.342701,-222.367264,-34.528400
1936669,-9.973641,-2.502982,3.058136,-42.630001,17.150000,23.520000,43.752659,-221.214783,-35.161266
1936684,-10.145930,-2.280442,3.065315,-43.610001,16.870001,20.719999,44.138058,-220.731644,-33.676346
1936704,-10.177038,-1.974149,2.967206,-45.639999,14.210000,18.830000,42.990826,-222.939743,-35.181568
1936724,-9.849210,-1.809039,2.885847,-45.990002,10.220000,16.170000,43.673454,-220.671890,-35.204685
1936744,-9.430450,-1.809039,2.864311,-51.799999,8.890000,12.180000,44.301178,-221.816437,-33.449177
1936759,-10.088501,-1.861683,3.048565,-62.510002,8.820000,6.020000,44.727669,-222.164001,-34.214577
1936779,-11.110272,-1.507532,2.847561,-72.379997,6.160000,2.240000,44.609898,-222.669586,-33.882847
1936799,-11.060021,-1.351993,2.692022,-79.800003,0.350000,-1.820000,41.517899,-218.178375,-34.748226
1936819,-10.301470,-2.098580,2.199083,-75.949997,-1.680000,-5.670000,45.348179,-220.949585,-34.564201
1936834,-10.696300,-3.017457,2.744666,-57.470001,0.140000,-8.680000,43.195587,-220.055359,-34.811821
1936854,-11.892754,-2.400087,2.900205,-36.189999,1.260000,-9.380000,45.433842,-219.891205,-33.536041
1936874,-11.296919,-1.691786,2.335478,-23.100000,-4.410000,-13.230000,46.754826,-221.965500,-33.071480
1936894,-9.789387,-1.131845,1.763573,-27.020000,-10.430000,-14.910000,46.506470,-221.659225,-33.155708
1936910,-9.442415,-1.483603,1.639142,-43.820000,-6.790000,-17.430000,46.367786,-219.528931,-34.179005
1936930,-9.734350,-2.043544,1.445316,-63.840000,0.490000,-20.860001,45.429134,-219.892197,-33.676369
1936950,-9.784601,-3.012671,1.481210,-68.949997,2.730000,-24.710001,46.678577,-223.021912,-33.818974
1936970,-9.585990,-3.933941,1.301742,-54.880001,2.100000,-27.230000,44.579887,-224.275818,-35.569241
1936985,-9.399343,-3.321357,0.447474,-35.910000,6.580000,-25.620001,44.921253,-220.881897,-34.969898
1937005,-10.277540,-3.323749,-0.067001,-32.970001,12.460000,-28.000000,45.390137,-221.220535,-34.472324
1937025,-10.244040,-4.575240,0.150753,-38.009998,13.860000,-32.410000,47.395382,-223.946701,-34.408272
1937045,-9.282090,-5.032286,0.110074,-20.650000,12.250000,-31.920000,47.552586,-221.832901,-32.772945
1937060,-9.231839,-3.517575,0.335007,-11.200000,10.850000,-26.600000,45.549866,-220.985916,-34.712177
1937080,-8.839402,-3.826260,0.229719,-31.570000,7.700000,-27.440001,43.577480,-222.772797,-35.015720
1937100,-7.879847,-5.372079,-0.411580,-44.029999,6.020000,-28.210001,48.711651,-226.022003,-34.084038
1937120,-7.293584,-5.494117,-0.964342,-38.570000,6.930000,-29.049999,46.774872,-225.161118,-34.058647
1937135,-7.243333,-7.236154,-0.993057,-44.380001,9.450000,-40.459999,44.799637,-220.828720,-32.436310
1937155,-6.211989,-8.202888,-0.993057,-19.740000,13.020000,-46.689999,46.061028,-225.835617,-34.173435
1937175,-6.228740,-7.288798,-0.815982,27.090000,14.000000,-51.310001,46.464401,-225.908264,-34.469383
1937195,-5.989449,-5.644870,-1.007414,50.330002,15.400000,-51.799999,45.047447,-225.934875,-34.744980
1937210,-5.776480,-5.647263,-1.213204,58.590000,14.700000,-56.209999,46.863605,-221.182037,-32.512768
1937230,-5.168682,-5.340971,-0.713087,64.330002,14.770000,-58.590000,46.294041,-222.945297,-32.961704
1937250,-5.943984,-4.929391,-0.667621,61.670002,19.670000,-54.880001,45.026077,-224.059662,-33.431122
1937270,-6.319670,-5.209361,-1.883219,75.459999,26.250000,-50.470001,48.835320,-229.195801,-31.983946
1937285,-6.922683,-4.903069,-1.067237,87.360001,30.940001,-52.709999,45.572414,-226.541489,-33.734543
1937305,-8.363214,-4.666171,-0.569512,79.519997,36.610001,-51.310001,47.179108,-224.674011,-32.012405
1937325,-9.629062,-3.206497,0.196218,63.630001,35.490002,-43.680000,45.094120,-226.204834,-34.512772
1937345,-10.174645,-1.196454,4.060765,43.330002,18.549999,-33.670002,46.389019,-226.404922,-32.874687
1937360,-9.806137,-3.390751,1.878433,12.040000,7.210000,-27.719999,46.075588,-225.552765,-32.581345
1937380,-9.236626,-5.077751,0.595834,-6.300000,-3.080000,-28.980000,46.648003,-229.908798,-34.058285
1937400,-9.507024,-5.297898,2.074651,-9.800000,-7.630000,-28.000000,44.757568,-225.077759,-33.749989
1937420,-9.224661,-6.558961,1.067237,-15.750000,-11.900000,-28.490000,46.292614,-228.785706,-33.856819
1937435,-8.176567,-5.888947,1.931077,-7.910000,-14.840000,-23.870001,45.432846,-225.451736,-33.260056
1937455,-7.750629,-7.080615,1.809039,-3.430000,-17.570000,-27.790001,45.820770,-226.847763,-33.650311
1937475,-7.166760,-6.267026,1.184489,15.400000,-20.230000,-23.170000,46.883976,-228.617767,-33.550640
1937495,-7.571161,-6.365136,1.811431,3.430000,-19.670000,-24.010000,47.647881,-229.532654,-32.736633
1937510,-6.314885,-7.686021,1.380708,2.380000,-21.210001,-27.160000,46.308495,-227.182434,-32.591423
1937530,-6.051664,-6.214382,-2.507768,26.530001,-22.540001,-17.710001,47.346397,-230.557693,-34.037804
1937550,-6.508710,-4.678135,4.199553,-4.550000,-14.000000,-16.030001,44.158855,-227.887527,-33.543121
1937570,-5.798016,-5.915269,2.017221,16.379999,-16.660000,-8.750000,46.627949,-226.713181,-33.071121
1937585,-6.989685,-5.484545,0.279970,30.030001,-11.900000,-0.140000,47.329739,-228.681488,-32.583622
1937605,-7.408443,-6.180882,1.016986,19.460001,-8.680000,1.050000,44.305775,-226.335449,-34.530647
1937625,-7.114116,-7.209832,1.189275,12.390000,-8.330000,-2.800000,46.376640,-224.807602,-32.451267
1937645,-6.295741,-7.245726,1.117488,12.320000,-7.280000,-4.340000,45.827232,-225.246490,-32.665573
1937661,-5.565904,-6.877218,0.387651,15.470000,-3.290000,-3.710000,46.171127,-223.731735,-33.941410
1937681,-5.793231,-7.303155,0.418759,20.020000,3.150000,-7.210000,47.545124,-228.994720,-33.481701
1937701,-6.037307,-6.841324,0.981092,28.139999,8.680000,-5.950000,47.248352,-230.018768,-34.642544
1937721,-6.243097,-6.779109,1.282599,30.940001,13.090000,-4.200000,46.085785,-229.030243,-35.020267
1937736,-6.479995,-7.396479,1.081594,31.500000,15.960000,-3.640000,44.600800,-226.911682,-34.214214
1937756,-6.652285,-7.621412,0.667621,41.299999,18.200001,-3.010000,44.024883,-225.756226,-34.426090
1937776,-7.090187,-7.138045,0.320650,58.869999,21.420000,-2.520000,44.479202,-226.377716,-35.520603
1937796,-7.973170,-5.558725,1.072023,75.040001,26.389999,1.260000,46.084576,-225.830658,-33.471783
1937811,-8.217246,-4.130159,1.301742,75.739998,24.990000,11.760000,43.561142,-225.136734,-33.612236
1937831,-8.226818,-4.984427,1.129453,68.809998,26.320000,18.690001,44.868881,-226.173462,-35.066448
1937851,-8.612076,-6.214382,0.047858,76.860001,35.279999,23.940001,46.354729,-227.732269,-33.530312
1937871,-8.633613,-5.429509,0.447474,84.769997,39.200001,22.820000,45.512051,-225.994629,-33.216640
1937886,-9.657777,-4.589598,1.213204,75.949997,45.570000,19.950001,44.080975,-226.024200,-33.913223
1937906,-9.901854,-4.252198,1.911934,54.880001,34.090000,20.580000,45.267090,-227.007782,-32.833855
1937926,-9.782208,-5.197396,1.813824,48.090000,28.139999,14.770000,45.052589,-225.654007,-33.433556
1937946,-9.327556,-4.934176,0.720265,50.400002,23.309999,15.050000,43.775318,-222.250366,-32.961830
1937961,-8.561825,-3.921976,1.174918,35.209999,4.830000,29.680000,45.094547,-225.924957,-33.341679
1937981,-9.181588,-4.163660,0.928448,20.299999,15.540000,20.020000,42.513279,-226.563324,-34.839409
1938001,-9.349092,-5.398401,1.344814,16.379999,22.049999,15.750000,43.480186,-226.194122,-34.500065
1938021,-7.530482,-5.455831,1.832968,9.800000,9.380000,48.160000,45.347614,-226.230240,-33.117119
1938036,-12.428764,-6.444101,2.366586,19.320000,1.960000,12.950000,42.511639,-223.643616,-34.462013
1938056,-9.231839,-5.262005,1.911934,31.850000,-11.130000,6.860000,45.603745,-223.614838,-32.374840
1938076,-7.231368,-3.977013,1.174918,24.290001,-14.350000,17.990000,44.473286,-223.179123,-34.112446
1938096,-8.523539,-5.530011,1.677429,11.900000,-14.210000,18.690001,43.350033,-225.102402,-33.744923
1938111,-9.346699,-5.314649,2.191904,12.810000,-15.470000,17.710001,42.539898,-223.637680,-33.620033
1938131,-9.660170,-4.603955,2.098580,9.800000,-23.309999,18.480000,43.470879,-221.676102,-33.558922
1938151,-9.136123,-4.106230,2.223012,-0.490000,-26.250000,17.780001,44.274990,-224.462219,-33.497452
1938171,-8.906404,-4.682921,2.127295,-14.420000,-26.320000,15.190001,44.958828,-225.393967,-35.069057
1938186,-8.884868,-4.510632,2.258905,-20.440001,-24.080000,13.930000,44.439857,-223.946747,-32.425873
1938206,-8.841795,-4.462774,2.318728,-21.280001,-22.469999,13.160000,44.422340,-222.630280,-33.313885
1938226,-8.777187,-4.443630,2.335478,-20.650000,-21.139999,13.090000,42.238415,-224.662704,-34.921207
1938246,-8.664721,-4.245019,2.383337,-17.219999,-19.530001,13.650000,46.399757,-225.082520,-32.920715
1938261,-8.691042,-4.611134,2.273263,-9.940000,-17.780001,12.530000,45.254276,-225.690323,-33.581532
1938281,-8.880082,-4.570455,2.024400,-0.770000,-17.500000,12.250000,45.133114,-224.876480,-33.716824
1938301,-8.774794,-4.003335,1.988507,0.210000,-17.010000,13.580000,44.422340,-222.630280,-33.313885
1938321,-8.750865,-4.077516,1.909541,-3.080000,-16.030001,13.860000,45.405907,-224.137268,-34.428722
1938336,-9.049978,-3.649185,1.952613,-8.050000,-17.500000,15.890000,46.379597,-226.406906,-33.155346
1938356,-9.128944,-3.381179,1.995685,-13.720000,-20.860001,20.440001,45.280037,-223.324417,-34.704346
1938376,-9.081086,-3.469717,1.899969,-19.530001,-23.730000,24.010000,43.107281,-223.754578,-35.186604
1938396,-9.107409,-3.742508,1.876040,-27.719999,-27.160000,25.830000,46.064526,-222.635040,-32.484612
1938412,-9.176803,-3.606112,1.897576,-42.000000,-32.270000,26.110001,43.140709,-222.986969,-36.873173
1938432,-9.083479,-4.194768,1.957399,-54.389999,-36.540001,24.780001,46.133881,-223.459793,-33.892952
1938452,-9.296448,-4.527382,2.227798,-65.940002,-41.930000,22.540001,45.525318,-226.551407,-35.137844
1938472,-9.334735,-4.283306,2.010043,-73.360001,-49.349998,21.350000,45.050087,-223.294052,-35.398354
1938487,-8.982977,-3.730544,1.909541,-77.629997,-55.790001,20.719999,45.421356,-222.813889,-34.334419
1938507,-8.679078,-3.802331,1.830575,-86.519997,-58.099998,15.610000,43.873821,-222.028625,-35.025974
1938527,-8.597719,-4.134945,1.995685,-94.779999,-59.920002,11.060000,44.649673,-224.820694,-35.806484
1938547,-8.451752,-4.383808,2.340264,-100.099998,-61.810001,10.850000,44.761524,-221.116531,-34.730045
1938562,-8.389536,-4.565669,2.100973,-102.480003,-61.740002,12.390000,44.725918,-223.764297,-35.058983
1938582,-8.320142,-4.362271,1.931077,-105.419998,-61.810001,13.580000,44.326393,-224.250412,-36.964893
1938602,-8.308177,-4.355093,2.050722,-105.279999,-63.630001,14.700000,45.245426,-220.411652,-35.309269
1938622,-7.987527,-4.781030,2.017221,-104.720001,-62.650002,15.120000,46.028946,-224.802017,-36.653526
1938637,-8.071279,-5.106466,2.022007,-103.180000,-59.920002,14.910000,45.296803,-220.680618,-34.936733
1938657,-7.858310,-6.063629,2.093795,-102.199997,-58.869999,15.750000,45.105747,-223.841904,-36.056583
1938677,-8.145459,-6.360350,2.112938,-95.410004,-56.910000,14.910000,47.784199,-224.302185,-36.296307
1938697,-7.829595,-5.955948,2.270870,-88.550003,-55.299999,13.860000,46.819035,-223.071106,-35.791241
1938712,-7.525696,-5.742980,2.383337,-85.610001,-52.709999,11.900000,46.798878,-224.395493,-36.025875
1938732,-7.379729,-5.640084,2.615448,-83.230003,-48.020000,9.170000,48.021816,-225.930862,-36.166050
1938752,-7.623805,-6.085166,2.713558,-76.019997,-42.700001,6.930000,45.106201,-223.081223,-38.725464
1938772,-7.889418,-6.168917,2.883454,-62.230000,-40.389999,7.140000,48.919365,-224.736908,-34.418369
1938787,-8.095208,-6.063629,2.830810,-49.770000,-39.549999,8.820000,44.771294,-224.873871,-38.340069
1938807,-7.843953,-5.654442,2.708772,-42.700001,-37.099998,8.680000,46.183968,-224.568375,-37.033707
1938827,-7.650127,-5.424723,2.548447,-41.720001,-32.340000,6.650000,49.348824,-226.683762,-35.887848
1938847,-7.607055,-5.532403,2.675271,-41.930000,-27.510000,4.340000,46.127880,-224.300400,-37.546570
1938862,-7.559196,-5.685550,2.747058,-41.160000,-22.750000,4.060000,46.080784,-224.310318,-38.949867
1938882,-7.647734,-5.652049,2.632199,-37.099998,-19.180000,4.550000,47.469448,-224.770447,-35.676281
1938902,-7.812845,-5.606584,2.699200,-28.280001,-18.480000,7.210000,45.271072,-222.565735,-37.653889
1938922,-7.528089,-5.525225,2.830810,-22.540001,-18.480000,8.890000,47.557644,-225.591232,-36.523296
1938937,-7.477838,-5.486938,2.428802,-18.900000,-15.680000,9.030000,45.589214,-223.416885,-37.806900
1938957,-7.487410,-5.704693,2.459909,-16.030001,-12.740000,8.260000,47.866364,-226.444382,-36.956970
1938977,-7.767380,-5.307470,2.421623,-12.810000,-9.380000,9.590000,46.562904,-225.686523,-36.533524
1938997,-7.800880,-5.144753,2.603484,-12.460000,-7.910000,10.430000,46.416874,-226.198044,-37.043781
1939012,-7.776951,-5.242862,2.541268,-11.620000,-5.880000,10.360000,45.137424,-224.674576,-38.587563
1939032,-7.992313,-5.302684,2.773381,-10.080000,-4.830000,10.430000,46.579674,-223.042725,-36.765903
1939052,-8.104779,-5.419937,2.744666,-8.540000,-4.270000,10.850000,48.622166,-226.040833,-36.750309
1939072,-8.078458,-5.396008,2.790131,-5.880000,-4.340000,11.410000,45.401115,-228.177460,-39.630833
1939087,-7.965991,-5.455831,2.723130,-2.030000,-3.360000,11.200000,45.489849,-224.198380,-38.084949
1939107,-7.863096,-5.362507,2.706379,1.400000,-1.540000,11.130000,47.427486,-224.499496,-35.768150
1939127,-7.877453,-5.218933,2.622627,4.690000,0.630000,11.060000,45.944603,-224.539993,-38.008373
1939147,-8.004277,-5.199789,2.735094,8.610000,2.030000,11.690000,46.224602,-226.159744,-36.615143
1939163,-8.004277,-5.089715,2.715951,12.740000,2.450000,12.880000,48.183292,-224.095947,-35.561493
1939183,-7.992313,-5.192611,2.787738,16.240000,3.080000,13.930000,47.374794,-225.550949,-35.813999
1939203,-8.009064,-5.001178,2.806881,19.250000,3.430000,14.210000,45.907352,-224.268051,-37.959915
1939223,-8.025814,-5.101680,2.766202,23.100000,3.500000,14.070000,46.492691,-225.421524,-37.467377
1939238,-8.042564,-4.955713,2.833203,30.730000,2.450000,15.190001,45.955772,-222.937714,-36.883301
1939258,-8.004277,-4.757101,2.904990,34.580002,4.270000,15.120000,45.572556,-221.540695,-36.352718
1939278,-8.181353,-4.766673,2.981564,35.420002,6.650000,13.370000,45.390484,-224.979858,-38.363007
1939298,-8.339285,-4.668564,3.046172,34.439999,4.480000,13.230000,48.574177,-227.091278,-36.655827
1939313,-8.310570,-4.654206,2.909776,34.369999,4.690000,11.340000,47.290878,-225.009048,-35.997749
1939333,-8.671899,-4.828888,2.694415,33.389999,5.110000,8.540000,44.875366,-224.091385,-37.921684
1939353,-8.683864,-4.125373,2.773381,32.060001,2.800000,7.490000,48.093349,-224.875458,-35.558887
1939373,-8.633613,-3.962656,2.955241,27.790001,1.540000,5.810000,47.175316,-223.153671,-37.490494
1939388,-8.683864,-4.029657,3.086851,20.299999,0.770000,4.410000,47.230080,-224.742065,-36.650944
1939408,-8.569004,-4.182803,2.914562,14.210000,-0.980000,3.570000,46.110790,-222.704086,-37.263481
1939428,-8.542682,-4.044014,2.739880,10.920000,-1.120000,3.640000,47.239502,-224.740082,-36.370285
1939448,-8.344070,-4.149302,2.809274,8.610000,-1.190000,3.220000,45.685509,-225.556107,-38.046570
1939463,-8.312963,-4.194768,2.950456,5.810000,-0.140000,3.080000,46.243126,-221.915649,-36.003120
1939483,-8.336892,-4.340735,3.036600,4.130000,0.560000,3.360000,45.046268,-222.254486,-37.036469
1939503,-8.296212,-4.328771,3.062922,5.950000,-0.560000,4.130000,44.892460,-225.687714,-38.204777
1939523,-8.190925,-4.307235,3.134710,9.170000,0.910000,3.570000,47.357704,-223.954620,-35.530914
1939538,-8.286641,-4.481917,3.000707,10.850000,0.840000,2.030000,48.360111,-225.457642,-36.084435
1939558,-8.322535,-4.398165,3.070101,14.420000,2.100000,1.540000,46.069263,-222.153259,-36.184258
1939578,-8.341678,-4.266555,2.952849,17.290001,2.590000,0.980000,48.286934,-223.593353,-36.314209
1939598,-8.317748,-4.144517,2.885847,19.320000,3.360000,-0.210000,45.491600,-222.598083,-37.240543
1939613,-8.411072,-4.053586,2.871490,17.780001,4.480000,-1.470000,46.624592,-224.912964,-37.378113
1939633,-8.542682,-4.041622,2.967206,15.540000,4.970000,-2.240000,46.960251,-227.080566,-36.643116
1939653,-8.583362,-4.216304,2.881061,15.120000,5.390000,-2.240000,48.107052,-225.152359,-36.308990
1939673,-8.674292,-4.065551,2.979171,18.129999,5.880000,-1.260000,45.173462,-221.746933,-37.087532
1939688,-8.363214,-4.407737,2.802095,16.170000,5.390000,-1.750000,46.160847,-224.293457,-36.564259
1939708,-8.480466,-4.218697,2.964813,14.140000,5.110000,-3.010000,46.691849,-223.578674,-35.740177
1939728,-8.547467,-4.300056,2.802095,13.720000,5.460000,-3.710000,46.304810,-221.142105,-36.847710
1939748,-8.528324,-3.965049,2.914562,14.140000,5.460000,-3.290000,45.103565,-225.722046,-38.072090
1939763,-8.413465,-4.039229,2.799702,11.060000,5.530000,-3.430000,47.373154,-222.631241,-35.436611
1939783,-8.399107,-4.027264,2.672878,12.880000,6.440000,-3.850000,45.691967,-223.954819,-37.061832
1939803,-8.320142,-3.761652,2.739880,16.379999,7.070000,-3.850000,45.097645,-222.523453,-36.663933
1939823,-8.336892,-4.101444,2.945670,14.350000,6.790000,-4.340000,44.636433,-223.783127,-37.725254
1939838,-8.461323,-4.170839,2.792524,13.860000,6.300000,-4.060000,47.045593,-221.782059,-35.564259
1939858,-8.344070,-4.343128,2.656128,13.020000,4.900000,-4.690000,47.764038,-225.626572,-36.530941
1939878,-8.233996,-4.467559,2.713558,11.620000,4.550000,-6.580000,46.539787,-225.411606,-36.064079
1939898,-8.145459,-4.702065,2.646556,8.820000,5.040000,-7.630000,46.279053,-223.508011,-35.724888
1939914,-8.379964,-4.723600,2.541268,8.540000,6.020000,-9.590000,48.307850,-226.229218,-34.959183
1939934,-8.384750,-4.469952,2.510161,4.690000,6.090000,-10.640000,45.752762,-224.221802,-36.408638
1939954,-8.279462,-4.477131,2.739880,-0.350000,4.830000,-9.730000,47.591930,-224.263885,-35.867672
1939974,-8.260319,-4.328771,2.792524,-3.710000,4.760000,-8.820000,46.263172,-225.111267,-36.990288
1939989,-8.133494,-5.080144,2.864311,-1.400000,7.910000,-6.510000,46.769299,-225.721848,-36.541168
1940009,-8.339285,-5.589833,3.177782,7.490000,16.170000,-5.040000,46.949192,-224.162842,-36.546387
1940029,-8.571397,-5.362507,2.893026,16.240000,16.870001,-5.110000,47.607380,-222.940491,-35.773369
1940049,-8.083243,-4.996392,2.916955,22.820000,18.480000,-4.690000,47.178703,-224.473099,-37.023476
1940064,-8.135887,-4.749923,3.094030,26.670000,22.330000,-4.620000,46.160416,-224.573334,-37.735355
1940084,-8.119137,-4.898283,3.077280,31.570000,28.420000,-6.650000,44.943512,-221.716553,-37.781536
1940104,-8.257926,-5.278755,2.938491,39.200001,36.189999,-9.940000,46.933743,-225.486237,-36.640690
1940124,-8.312963,-5.510867,2.696807,46.970001,42.840000,-12.390000,46.431541,-221.395218,-34.229893
1940139,-7.944455,-5.111252,2.617841,55.020000,43.889999,-11.830000,48.836662,-227.394592,-36.150608
1940159,-7.958812,-4.702065,2.739880,62.299999,44.730000,-10.570000,45.844460,-221.842010,-35.566837
1940179,-8.250747,-4.560883,2.699200,67.620003,45.150002,-10.500000,47.354744,-222.355331,-34.826832
1940199,-8.324927,-4.587205,2.455124,75.320000,42.910000,-10.780000,45.353668,-224.428040,-37.143452
1940214,-8.222033,-4.926998,2.077044,77.419998,40.670002,-12.460000,48.032986,-224.328598,-35.040981
1940234,-8.336892,-4.941355,1.739644,75.879997,38.779999,-12.670000,47.655685,-226.130157,-35.918560
1940254,-8.435001,-4.477131,1.619999,69.930000,36.540001,-12.600000,46.332180,-222.176697,-34.507942
1940274,-8.573790,-4.249805,1.909541,60.970001,32.970001,-12.320000,47.024117,-224.426849,-35.472198
1940289,-8.772401,-4.278520,2.239762,53.689999,28.559999,-11.690000,47.747810,-223.470505,-33.905663
1940309,-8.808294,-4.264162,2.321121,50.820000,24.710001,-10.360000,47.074173,-226.016251,-34.772980
1940329,-8.798723,-4.221090,2.148831,49.420002,22.469999,-9.170000,45.684727,-222.076660,-35.326988
1940349,-8.746079,-4.182803,2.074651,48.580002,22.120001,-8.260000,45.115166,-223.839920,-35.775925
1940364,-8.770008,-4.335949,2.136867,48.790001,22.820000,-8.470000,46.706406,-223.295837,-34.148090
1940384,-8.906404,-4.326378,2.311549,50.750000,23.170000,-9.240000,44.365391,-222.922058,-36.168941
1940404,-8.889653,-4.264162,2.347443,52.150002,22.330000,-9.310000,48.019283,-224.051712,-34.290878
1940424,-8.803509,-4.307235,2.380944,54.250000,21.700001,-8.680000,45.839748,-221.843002,-35.707169
1940439,-8.626433,-4.355093,2.455124,57.260002,21.700001,-8.190000,46.142868,-223.737686,-34.783390
1940459,-8.504395,-4.426880,2.383337,61.459999,21.910000,-8.050000,45.368660,-223.865326,-34.380268
1940479,-8.557039,-4.280912,2.211047,65.449997,21.700001,-8.120000,45.936905,-223.422485,-33.604645
1940499,-8.643184,-4.297663,2.223012,68.180000,21.559999,-7.910000,46.476891,-222.985580,-33.670998
1940514,-8.612076,-4.240233,2.141653,70.629997,20.020000,-8.190000,45.494209,-220.438065,-34.053944
1940534,-8.801116,-4.431666,2.067473,69.440002,16.590000,-10.640000,44.451485,-221.583801,-33.969688
1940554,-8.143066,-5.001178,1.804253,70.349998,15.190001,-10.360000,43.890911,-223.624954,-35.309059
1940574,-8.731722,-3.653971,1.823396,70.769997,20.090000,-10.990000,45.913784,-223.147568,-33.135201
1940589,-8.875296,-4.139731,1.670250,61.389999,19.250000,-12.040000,41.792332,-220.358871,-35.837524
1940609,-8.616862,-4.024871,1.512318,55.860001,20.090000,-10.640000,45.848709,-222.601700,-32.757629
1940629,-8.963834,-3.610898,1.653499,50.189999,20.790001,-9.730000,42.571682,-219.950363,-34.929214
1940649,-9.064336,-3.539111,1.816217,45.360001,20.440001,-7.140000,46.691387,-224.339340,-33.071297
1940665,-9.157660,-3.481681,1.904755,43.680000,20.580000,-4.830000,44.422340,-222.630280,-33.313885
1940685,-9.167231,-3.208890,1.945434,42.279999,20.370001,-2.940000,45.325813,-224.634918,-32.974361
1940705,-9.234232,-3.390751,1.799467,43.189999,20.020000,-2.310000,44.800842,-224.028305,-33.984798
1940725,-9.282090,-3.328535,1.868861,41.439999,19.879999,-2.380000,44.571331,-223.718048,-33.507710
1940740,-9.425665,-3.390751,1.837753,40.670002,18.059999,-2.030000,45.594326,-223.616821,-32.655499
1940760,-9.425665,-3.304606,1.952613,42.349998,12.810000,-0.350000,45.332272,-223.033630,-31.989622
1940780,-9.109801,-3.132317,1.813824,40.459999,12.740000,-1.400000,45.241898,-224.093018,-33.158108
1940800,-9.181588,-3.273498,1.742037,36.820000,12.810000,-3.010000,43.736748,-223.298843,-32.586689
1940815,-9.018870,-3.218461,1.564962,32.830002,12.460000,-3.640000,44.699383,-222.650757,-31.216578
1940835,-9.119372,-3.101209,1.603248,28.559999,10.500000,-3.780000,44.727642,-222.644806,-30.374598
1940855,-9.085872,-3.161031,1.744430,24.780001,9.100000,-3.780000,44.534512,-223.166245,-32.288155
1940875,-8.949476,-3.326142,1.665464,20.930000,9.310000,-4.270000,43.722618,-223.301819,-33.007679
1940890,-8.975799,-3.426644,1.634356,18.480000,10.500000,-5.600000,45.113384,-225.921005,-32.780357
1940910,-9.224661,-3.484074,1.715715,15.330000,9.380000,-5.250000,43.764580,-223.572769,-32.915806
1940930,-9.396950,-3.417073,1.610427,11.200000,7.070000,-4.970000,44.710442,-225.568481,-31.313311
1940950,-9.215089,-3.213675,1.462067,5.600000,5.950000,-5.180000,43.828445,-220.919052,-31.744886
1940965,-9.234232,-3.237605,1.502746,-1.330000,6.020000,-5.880000,44.992226,-225.107147,-32.915653
1940985,-9.241411,-3.433823,1.555390,-7.980000,5.950000,-6.090000,44.579861,-224.756622,-31.729265
1941005,-9.176803,-3.266320,1.744430,-14.070000,4.900000,-3.780000,45.079208,-222.728348,-32.214180
1941025,-9.358664,-3.577398,1.770752,-16.940001,4.690000,-4.970000,43.681095,-222.750992,-31.928457
1941040,-8.951869,-3.541504,1.742037,-16.450001,4.410000,-4.130000,43.806969,-223.563843,-31.652834
1941060,-8.851367,-3.555861,1.794681,-15.190001,4.690000,-3.010000,44.997364,-224.826294,-31.604227
1941080,-8.825045,-3.625256,1.732466,-13.510000,5.180000,-3.780000,44.743870,-224.800858,-32.999882
1941100,-8.987762,-3.632434,1.787502,-12.460000,3.710000,-2.450000,43.996170,-226.522858,-32.599190
1941115,-9.136123,-3.941120,1.868861,-7.140000,5.040000,-3.780000,44.310917,-226.054596,-33.219219
1941135,-8.889653,-3.704222,1.658285,-3.990000,3.780000,-1.260000,44.110546,-224.697845,-33.397934
1941155,-9.057158,-3.555861,1.533854,-4.130000,4.130000,0.490000,44.801708,-223.468567,-31.642609
1941175,-9.119372,-3.682686,1.617606,-7.560000,3.010000,2.450000,46.016972,-223.405640,-31.219034
1941190,-9.186374,-3.606112,1.641535,-11.200000,1.470000,2.660000,44.812016,-222.426025,-32.859730
1941210,-9.109801,-3.850189,1.761180,-18.059999,-0.630000,3.290000,43.042957,-227.168961,-33.688641
1941230,-9.018870,-4.094266,1.916719,-24.150000,-4.130000,4.410000,45.913326,-223.908234,-30.466320
1941250,-9.049978,-4.154088,1.971756,-25.830000,-6.160000,4.060000,44.805984,-223.747437,-32.673374
1941265,-9.078693,-4.079908,1.880826,-26.740000,-9.100000,3.990000,46.419914,-223.758148,-32.686085
1941285,-8.808294,-4.032050,1.813824,-28.490000,-11.270000,4.830000,43.750450,-223.575729,-33.336796
1941305,-8.793938,-4.146910,1.804253,-29.680000,-12.110000,5.250000,45.142963,-224.594635,-32.265064
1941325,-8.813081,-4.216304,1.801860,-30.520000,-12.600000,5.600000,42.808407,-222.619583,-33.301174
1941340,-8.853760,-4.307235,1.756395,-31.500000,-12.950000,5.880000,44.092140,-224.421951,-32.788155
1941360,-8.686256,-4.364665,1.871254,-32.549999,-13.510000,6.300000,46.213947,-223.442932,-31.507339
1941380,-8.588147,-4.419701,1.947827,-33.389999,-13.650000,6.510000,45.029472,-225.379089,-32.964108
1941400,-8.693435,-4.639849,2.117724,-33.670002,-14.140000,6.230000,43.104210,-226.675278,-35.704327
1941415,-8.691042,-4.737958,2.122509,-30.450001,-14.280000,5.880000,46.297863,-223.984848,-31.323591
1941435,-8.631220,-4.505846,2.203868,-28.910000,-15.120000,6.370000,44.347843,-222.086395,-33.216976
1941455,-8.559432,-4.407737,2.282834,-28.700001,-16.100000,7.280000,45.338730,-221.432373,-31.004883
1941475,-8.559432,-4.369450,2.134474,-27.860001,-16.660000,7.630000,42.283440,-222.012955,-34.311611
1941490,-8.535503,-4.393379,2.175153,-25.900000,-17.080000,7.840000,44.283085,-225.780670,-32.890106
1941510,-8.566611,-4.362271,2.230190,-23.309999,-17.219999,6.930000,45.494965,-224.398300,-32.933552
1941530,-8.573790,-4.393379,2.141653,-19.809999,-17.150000,6.090000,44.999569,-222.465332,-33.428696
1941550,-8.554646,-4.426880,2.014829,-17.920000,-16.590000,5.460000,45.097618,-223.004257,-32.823956
1941565,-8.564219,-4.532168,1.950220,-18.410000,-15.050000,4.760000,45.656010,-222.843262,-33.500088
1941585,-8.504395,-4.627884,1.926291,-18.760000,-13.370000,4.410000,44.446777,-221.584793,-34.110020
1941605,-8.516360,-4.577633,2.005257,-17.639999,-11.270000,4.620000,44.136307,-222.331940,-34.520752
1941625,-8.506788,-4.374236,1.947827,-15.050000,-9.730000,6.020000,47.076355,-224.136078,-32.757473
1941640,-8.425429,-4.142124,1.835361,-12.110000,-7.700000,8.610000,45.254387,-221.170334,-32.359726
1941660,-8.370393,-3.972227,1.636749,-8.610000,-4.550000,10.430000,46.156109,-224.775253,-32.864613
1941680,-8.499610,-3.981799,1.617606,-3.150000,-1.120000,11.410000,45.220100,-222.497681,-33.015350
1941700,-8.710185,-4.058372,1.450102,5.880000,2.660000,11.130000,45.223057,-224.096985,-33.719429
1941715,-8.961441,-3.900440,1.304135,16.030001,6.300000,8.610000,45.237186,-224.094009,-33.298439
1941735,-9.303627,-3.895654,1.354386,20.860001,7.980000,3.570000,46.034946,-223.961411,-32.999908
1941755,-9.593168,-3.735330,1.744430,17.990000,6.090000,-0.770000,45.831619,-221.005371,-32.474541
1941775,-9.626669,-3.673114,2.060294,12.180000,1.820000,-2.730000,47.380795,-224.710342,-32.160381
1941791,-9.430450,-3.960263,2.400087,8.960000,-2.800000,-3.920000,48.279667,-222.195969,-30.739388
1941811,-9.116980,-3.716186,2.562804,7.630000,-7.700000,-4.270000,43.568924,-222.215027,-32.954185
1941831,-8.703007,-3.701829,2.380944,4.760000,-10.990000,-5.110000,44.217583,-225.514664,-33.683632
1941851,-8.516360,-3.625256,1.890397,2.240000,-13.440001,-6.020000,46.129601,-223.180908,-32.862186
1941866,-8.430215,-3.625256,1.428566,-2.100000,-15.050000,-7.070000,46.885838,-222.497482,-31.484430
1941886,-8.420644,-3.831046,1.141417,-7.910000,-15.750000,-7.560000,45.156342,-220.631409,-32.964462
1941906,-8.511574,-3.967442,0.976306,-14.700000,-15.470000,-7.000000,43.816845,-222.801193,-34.041054
1941926,-8.698221,-4.369450,1.134238,-21.280001,-15.680000,-5.320000,46.985630,-221.436142,-30.035282
1941941,-8.954262,-4.379022,1.273027,-26.950001,-15.680000,-3.430000,45.389248,-222.261078,-32.974541
1941961,-9.112194,-4.496274,1.641535,-30.940001,-16.660000,-1.260000,43.585579,-224.091232,-34.408371
1941981,-9.150480,-4.558490,2.069865,-29.540001,-18.340000,-1.190000,46.326576,-223.218231,-33.150490
1942001,-8.975799,-4.666171,2.359407,-22.610001,-18.690001,-2.520000,45.955742,-223.418518,-33.043324
1942016,-8.904011,-4.836067,2.443159,-11.130000,-16.940001,-5.390000,42.964748,-221.065521,-34.008045
1942036,-8.837009,-4.448416,2.354622,1.610000,-13.300000,-7.070000,43.577911,-222.492920,-33.844620
1942056,-8.722150,-4.180410,2.206261,12.250000,-9.590000,-7.700000,44.398792,-222.635239,-34.015533
1942076,-8.681471,-4.000942,2.038758,20.510000,-5.740000,-7.910000,46.342030,-221.894836,-33.056187
1942091,-8.698221,-3.831046,1.878433,24.430000,-3.640000,-8.470000,45.708599,-226.311813,-34.676041
1942111,-8.729329,-3.586969,1.581712,23.870001,-2.940000,-8.540000,47.470306,-224.210709,-33.334087
1942131,-8.671899,-3.570219,1.426173,18.410000,-2.520000,-7.840000,45.586227,-222.298386,-33.262848
1942151,-8.753258,-3.543897,1.273027,9.940000,-2.170000,-6.860000,45.828552,-223.926071,-32.992260
1942166,-8.817866,-3.819081,1.265848,0.770000,-2.730000,-5.390000,45.553688,-222.025452,-33.074059
1942186,-8.997334,-3.984192,1.402244,-8.400000,-4.340000,-2.800000,47.352966,-224.436417,-31.831264
1942206,-8.980584,-3.938727,1.543426,-18.200001,-7.420000,1.610000,44.111439,-223.657303,-34.895718
1942226,-8.932726,-4.027264,1.560176,-24.500000,-9.100000,4.270000,44.441956,-226.105774,-35.472145
1942241,-8.719757,-4.041622,1.675036,-29.610001,-9.240000,6.790000,46.433613,-224.035049,-33.436188
1942261,-8.667113,-4.170839,1.904755,-33.180000,-8.890000,10.010000,45.044491,-224.335571,-34.040901
1942281,-8.585754,-4.410130,2.105759,-32.689999,-7.840000,11.760000,45.603317,-223.894714,-33.545933
1942301,-8.463716,-4.431666,2.112938,-28.770000,-7.280000,13.160000,46.060246,-222.356155,-31.453848
1942316,-8.339285,-4.462774,2.146439,-23.730000,-5.740000,13.160000,46.396366,-223.763107,-33.387733
1942336,-8.427822,-4.575240,2.096188,-18.969999,-4.620000,11.690000,45.058189,-224.612473,-34.791004
1942356,-8.767615,-4.690100,1.962185,-12.950000,-3.220000,7.770000,45.786594,-223.655121,-33.084137
1942376,-9.088264,-4.814531,1.909541,-6.860000,-3.570000,3.290000,44.801277,-223.748428,-32.813702
1942391,-9.109801,-4.637456,1.868861,-4.410000,-5.810000,0.490000,44.871952,-223.252762,-34.548725
1942411,-9.119372,-4.489096,2.110545,-5.530000,-7.910000,-0.910000,45.632893,-222.568344,-33.030643
1942431,-9.028442,-4.405344,2.263691,-8.050000,-10.430000,-0.980000,46.237957,-222.677322,-33.474567
1942451,-8.731722,-4.400558,2.450338,-9.730000,-12.740000,-0.350000,46.377525,-223.767075,-33.949055
1942466,-8.540289,-4.534561,2.543661,-7.140000,-13.020000,-0.560000,44.481846,-223.736893,-36.173981
1942486,-8.346463,-4.359879,2.388122,-3.080000,-12.390000,-0.840000,44.178261,-222.602890,-34.428875
1942506,-8.243568,-4.350307,2.038758,-1.260000,-10.850000,-0.980000,44.397041,-224.235535,-34.859943
1942526,-8.243568,-4.359879,1.787502,-1.610000,-8.610000,-0.840000,45.001213,-225.385040,-33.806087
1942541,-8.420644,-4.429273,1.777931,-3.220000,-6.860000,-0.070000,45.328453,-221.994095,-33.627735
1942561,-8.525931,-4.486702,1.794681,-5.040000,-6.020000,1.610000,46.913662,-222.771408,-31.813543
1942581,-8.578575,-4.469952,1.923898,-6.790000,-6.090000,3.290000,45.921455,-224.745865,-33.698948
1942601,-8.650363,-4.417308,2.057901,-7.210000,-5.950000,4.480000,44.328571,-222.370239,-34.949390
1942617,-8.736507,-4.359879,2.194297,-5.880000,-5.390000,5.250000,45.073635,-223.289093,-34.696701
1942637,-8.817866,-4.134945,2.232583,-3.430000,-4.900000,5.880000,46.317158,-223.220215,-33.431152
1942657,-9.109801,-4.101444,2.022007,0.840000,-6.090000,6.790000,45.378078,-223.863342,-34.099609
1942677,-8.997334,-3.924369,2.175153,6.440000,-7.770000,8.680000,46.015785,-219.725250,-33.510521
1942692,-9.169623,-3.933941,2.244548,10.360000,-11.060000,8.540000,43.931118,-225.496185,-36.061596
1942712,-9.014085,-3.986585,2.311549,9.590000,-13.370000,7.210000,44.074188,-223.385361,-34.847263
1942732,-8.554646,-3.685078,1.823396,11.130000,-13.230000,6.090000,44.443707,-224.505493,-34.627739
1942752,-8.813081,-3.551076,1.921505,7.140000,-11.340000,3.920000,44.698093,-223.490372,-34.729870
1942767,-8.698221,-4.149302,2.352229,1.050000,-11.900000,3.500000,46.772343,-223.281952,-32.183472
1942787,-8.545074,-4.402951,2.251727,-4.060000,-12.040000,2.800000,47.436020,-225.538071,-33.989712
1942807,-8.671899,-4.266555,2.127295,-7.770000,-11.900000,3.360000,44.853111,-223.256729,-35.110046
1942827,-8.442180,-4.163660,2.287620,-11.760000,-11.410000,3.850000,46.318481,-221.899796,-33.757839
1942842,-8.502003,-4.340735,2.491017,-14.770000,-10.990000,4.550000,46.068375,-223.193802,-34.686478
1942862,-8.621648,-4.333557,2.400087,-15.190001,-10.780000,5.810000,45.151203,-220.912277,-34.275894
1942882,-8.549861,-4.465167,2.519732,-15.820000,-10.150000,6.160000,45.193050,-225.703217,-35.405819
1942902,-8.530717,-4.553704,2.380944,-16.309999,-9.660000,5.880000,46.118000,-225.063065,-35.158352
1942917,-8.516360,-4.412522,2.445552,-16.799999,-8.400000,5.180000,43.094471,-222.437134,-35.934280
1942937,-8.729329,-4.481917,2.534090,-18.270000,-6.650000,4.690000,45.640244,-219.926529,-33.543686
1942957,-9.018870,-4.426880,2.328300,-20.510000,-4.200000,5.880000,44.685711,-221.893051,-34.306446
1942977,-9.138516,-3.871725,2.132081,-21.700001,-2.590000,8.050000,44.890789,-223.248795,-33.987408
1942992,-9.325163,-3.929155,2.223012,-25.969999,-0.980000,6.440000,45.346428,-222.549881,-35.408607
1943012,-10.143538,-3.981799,2.337871,-30.380001,1.610000,4.480000,46.278160,-224.548553,-34.227104
1943032,-10.588618,-4.010514,1.966970,-31.710001,2.730000,1.050000,45.572876,-225.780823,-36.403423
1943052,-10.983448,-3.866940,1.524282,-27.440001,4.620000,-9.940000,45.396484,-224.139252,-34.709385
1943067,-10.648441,-3.709008,1.232348,-24.710001,0.000000,-27.440001,45.388390,-222.820831,-35.316730
1943087,-9.325163,-2.890633,1.713322,-28.490000,0.630000,-36.189999,45.745415,-226.863632,-35.895592
1943107,-9.538132,-3.802331,2.077044,-43.610001,4.060000,-35.770000,43.708950,-222.544128,-36.097546
1943127,-9.949712,-3.634827,2.065080,-40.180000,7.140000,-41.509998,45.596855,-225.495987,-34.530674
1943142,-8.595325,-4.584812,2.158403,-40.110001,3.500000,-35.630001,47.797871,-225.059891,-33.206440
1943162,-8.478073,-5.142359,1.758787,-39.830002,5.740000,-37.590000,43.547901,-224.099167,-35.531013
1943182,-8.731722,-6.329242,1.658285,-21.980000,12.180000,-39.130001,46.191177,-226.927353,-34.928574
1943202,-7.906168,-6.783895,0.894948,14.280000,16.100000,-36.750000,47.409943,-223.663849,-32.816185
1943217,-9.148088,-5.781266,0.662836,67.970001,33.040001,-42.910000,47.074173,-226.016251,-34.772980
1943237,-5.951162,-3.244783,1.619999,53.340000,15.750000,-26.040001,44.606827,-225.590286,-34.400574
1943257,-7.372550,-4.276127,1.895183,14.210000,14.770000,-14.490000,47.465492,-228.731705,-34.696217
1943277,-7.879847,-5.455831,1.383101,9.940000,16.170000,-10.220000,45.946213,-227.940491,-34.545788
1943292,-6.654677,-4.941355,1.208419,22.540001,15.470000,-5.110000,46.157429,-223.454834,-33.191299
1943312,-6.685785,-4.948534,1.007414,24.710001,19.110001,-0.350000,44.276199,-227.661804,-35.045940
1943332,-7.219404,-5.967913,0.851875,30.100000,21.070000,2.940000,45.990353,-226.331284,-32.438404
1943352,-7.224190,-6.546997,0.957163,48.369999,22.400000,4.340000,47.919029,-225.873734,-33.071144
1943368,-6.501531,-4.891104,-0.014357,66.919998,26.950001,11.060000,46.079865,-225.831650,-33.612114
1943388,-6.805430,-4.544132,0.344579,74.970001,35.070000,14.210000,45.876431,-227.395615,-34.308544
1943408,-6.958577,-4.280912,-0.600620,58.170002,42.420002,15.960000,47.149529,-226.000381,-32.527699
1943428,-8.322535,-5.056215,1.588891,24.360001,38.360001,12.950000,48.322727,-230.186493,-33.417801
1943443,-7.879847,-5.879375,3.003100,11.200000,28.980000,15.890000,47.644489,-228.213226,-33.203651
1943463,-7.530482,-4.297663,2.072258,-1.680000,21.700001,18.059999,47.959671,-227.465088,-32.652588
1943483,-7.650127,-2.828417,1.679821,-49.630001,17.920000,15.750000,45.397243,-228.099503,-33.588993
1943503,-7.745843,-4.134945,2.361800,-116.199997,4.480000,11.060000,47.643173,-229.533646,-32.876965
1943518,-7.269655,-4.419701,2.017221,-161.630005,-6.650000,11.270000,45.904255,-227.669540,-34.637657
1943538,-7.142831,-3.570219,1.210811,-218.680008,-20.299999,14.980000,46.564518,-229.087021,-33.070938
1943558,-7.425194,-3.988978,0.693943,-274.329987,-32.759998,20.020000,49.396778,-226.114105,-32.142353
1943578,-7.281620,-4.675743,1.299349,-303.450012,-47.529999,25.200001,46.933716,-225.967026,-32.800713
1943593,-6.836538,-5.051429,1.399851,-278.250000,-59.080002,30.309999,46.607471,-223.797440,-33.255051
1943613,-7.217011,-5.652049,1.742037,-216.440002,-69.440002,39.759998,43.681553,-221.990326,-34.597336
1943633,-7.743451,-5.195004,1.215597,-150.080002,-77.699997,51.170002,47.920349,-224.553314,-33.397831
1943653,-7.741058,-4.388594,0.057430,-107.590004,-84.000000,60.410000,46.649429,-224.068390,-33.163174
1943668,-7.159581,-4.307235,-2.220619,-83.440002,-80.709999,67.830002,47.961880,-225.104141,-34.477055
1943688,-7.820024,-5.135181,-1.072023,-58.799999,-75.180000,74.059998,46.073086,-223.192810,-34.546146
1943708,-10.397185,-5.410365,-0.083752,-28.559999,-71.400002,74.620003,47.989704,-225.378067,-34.806171
1943728,-11.339992,-4.137338,-0.356543,4.830000,-82.809998,80.570000,47.160725,-223.917313,-35.242607
1943743,-9.985605,-2.407265,-1.708536,23.799999,-88.129997,91.629997,47.046021,-221.502197,-34.393158
1943763,-8.657541,-2.960027,-1.878433,25.129999,-79.519997,97.370003,46.290222,-221.905746,-34.599819
1943783,-9.545310,-4.127767,-1.074416,21.910000,-58.869999,93.940002,48.023239,-220.090454,-35.270939
1943803,-12.579518,-5.056215,-0.404401,43.750000,-43.680000,90.720001,51.365345,-223.287659,-33.476925
1943818,-12.268440,-4.443630,-0.129217,85.540001,-44.029999,87.360001,50.088852,-223.363480,-35.724789
1943838,-10.466580,-3.295034,0.315864,115.849998,-40.040001,79.730003,48.202591,-223.331329,-37.669052
1943858,-10.028678,-3.129924,1.069630,128.100006,-27.020000,68.949997,49.006809,-221.597443,-36.385780
1943878,-11.378278,-3.089244,2.072258,132.509995,-14.980000,50.889999,49.067604,-221.864426,-35.732586
1943893,-13.139459,-1.940648,2.017221,132.789993,-12.180000,28.910000,51.133327,-220.617447,-34.964634
1943913,-12.380906,-0.469010,1.567355,117.809998,-19.389999,2.870000,49.152409,-221.365799,-37.046619
1943933,-10.545546,0.485760,1.450102,81.410004,-22.540001,-24.010000,48.496403,-220.707977,-35.804134
1943953,-9.777423,-0.050251,1.433352,39.830002,-18.760000,-46.619999,48.394966,-218.849625,-36.875889
1943968,-9.961677,-0.978699,1.691786,14.350000,-14.910000,-64.190002,47.627106,-221.895996,-36.709835
1943988,-10.428293,-1.452495,1.859290,4.200000,-12.810000,-76.790001,48.336243,-221.222488,-36.735378
1944008,-11.342384,-1.655892,1.880826,11.270000,-13.300000,-84.910004,47.603989,-221.621078,-36.240387
1944028,-10.725014,-1.663071,2.055508,18.900000,-20.370001,-84.910004,47.946995,-221.146866,-36.018436
1944043,-10.217717,-1.241919,1.959792,21.210001,-24.500000,-79.730003,48.139694,-220.905289,-35.275978
1944063,-9.954497,-0.942806,1.485996,21.770000,-27.090000,-72.309998,46.806225,-221.753677,-36.538921
1944083,-9.643419,-2.897812,1.955006,27.230000,-28.840000,-65.309998,48.476566,-226.272476,-36.089470
1944103,-9.825280,-2.218226,1.780324,40.599998,-26.600000,-53.410000,47.239178,-220.499954,-36.319580
1944119,-9.128944,-1.012200,1.612820,49.770000,-25.480000,-41.860001,47.171036,-222.874786,-36.459728
1944139,-8.805902,-0.765731,1.684607,43.750000,-24.570000,-27.790001,48.052818,-218.764084,-34.755646
1944159,-8.703007,-0.993057,1.888005,28.000000,-21.280001,-17.010000,45.889053,-219.472137,-36.128334
1944179,-8.478073,-1.251491,1.746823,14.140000,-18.340000,-8.470000,47.104637,-223.649338,-35.755470
1944194,-8.296212,-1.627177,1.852111,1.190000,-14.630000,0.700000,47.264801,-223.134827,-34.824223
1944214,-8.432608,-1.816217,1.856897,-6.300000,-10.360000,9.030000,46.117680,-220.822922,-35.107643
1944234,-8.801116,-1.801860,1.974149,-7.000000,-6.160000,16.799999,45.693718,-222.354538,-36.217426
1944254,-9.401736,-1.742037,1.933470,-5.110000,-3.360000,23.030001,49.247036,-221.066086,-33.068924
1944269,-9.693670,-2.026793,2.012436,-1.820000,-3.220000,27.090000,44.377449,-220.279236,-36.541656
1944289,-9.597955,-1.876040,1.978935,4.620000,-3.990000,28.630001,46.586128,-221.441437,-35.781166
1944309,-9.413700,-1.631963,1.983721,11.200000,-3.640000,29.400000,45.453140,-219.126556,-35.643600
1944329,-9.418487,-1.354386,2.043544,12.110000,-2.450000,28.000000,46.899994,-222.013718,-34.903416
1944344,-9.676920,-1.375922,2.038758,7.140000,-1.820000,24.360001,47.657543,-220.009872,-33.852348
1944364,-9.681706,-1.402244,2.098580,-0.630000,-1.960000,20.860001,46.850258,-224.664459,-35.653343
1944384,-9.396950,-1.368743,2.292406,-10.220000,-2.800000,17.780001,47.107708,-220.728638,-35.237747
1944404,-9.406522,-1.732466,2.601091,-17.780001,-2.940000,15.960000,44.124817,-219.694092,-35.595116
1944419,-9.542917,-1.837753,2.866704,-19.110001,-3.220000,16.379999,46.115040,-223.463760,-34.454269
1944439,-9.475916,-1.574534,2.881061,-17.360001,-4.760000,18.690001,46.563793,-224.645981,-38.031307
1944459,-9.291662,-1.414209,2.878669,-19.110001,-6.510000,21.700001,43.816872,-222.320389,-37.881027
1944479,-9.160052,-1.466853,2.811667,-22.469999,-6.860000,24.710001,45.655151,-223.403015,-35.842281
1944494,-9.064336,-1.483603,2.773381,-26.530001,-7.000000,27.650000,45.304474,-222.278931,-35.500481
1944514,-9.272519,-1.466853,2.730308,-33.180000,-6.580000,29.610001,43.871750,-219.388794,-35.819679
1944534,-9.270126,-1.732466,2.569983,-40.110001,-6.580000,29.680000,45.375580,-221.503372,-36.064411
1944554,-8.870510,-2.043544,2.400087,-42.980000,-6.370000,28.070000,45.509659,-219.114670,-33.959641
1944569,-8.494823,-2.048329,2.285227,-41.439999,-3.710000,25.690001,46.997604,-222.832520,-35.469772
1944589,-8.793938,-2.084223,2.352229,-40.040001,1.330000,22.680000,45.056118,-221.972641,-35.584709
1944609,-9.894675,-2.275656,2.569983,-38.150002,5.250000,21.280001,46.911942,-223.890900,-36.497932
1944629,-10.143538,-2.483839,2.668092,-32.480000,3.570000,20.790001,45.746845,-221.023224,-35.000481
1944644,-9.528560,-2.514946,2.737487,-24.639999,-0.070000,20.580000,45.843246,-218.642441,-34.018349
1944664,-9.229446,-2.199083,2.651342,-20.299999,-0.840000,20.160000,45.948532,-221.059540,-35.148457
1944684,-9.387379,-2.220619,2.715951,-22.469999,-2.310000,18.340000,46.870842,-223.060211,-34.247608
1944704,-9.277305,-2.239762,2.761416,-25.480000,-4.480000,14.700000,46.198959,-224.005661,-34.270523
1944719,-9.183981,-2.000471,2.713558,-27.160000,-5.740000,10.640000,46.611427,-219.836212,-34.235111
1944739,-9.002120,-2.007650,2.715951,-27.230000,-5.950000,7.280000,45.495529,-219.117645,-34.380630
1944759,-8.987762,-2.091402,2.785345,-25.410000,-5.320000,5.810000,45.422676,-221.493469,-34.661114
1944779,-9.016478,-2.278049,2.845168,-19.670000,-3.920000,4.970000,46.608795,-222.477036,-33.581734
1944794,-9.064336,-2.081830,2.974385,-12.530000,-3.710000,4.620000,44.624912,-221.626068,-34.959644
1944814,-9.210303,-1.777931,2.928920,-8.680000,-3.430000,3.850000,43.659325,-220.674866,-35.625675
1944834,-9.231839,-1.655892,2.950456,-9.310000,-3.780000,2.660000,43.321022,-221.148087,-35.707294
1944854,-9.267733,-1.670250,3.156246,-11.060000,-4.200000,1.890000,46.119431,-219.222656,-34.263237
1944870,-9.384986,-1.667857,3.251962,-11.480000,-4.900000,1.750000,42.353683,-221.797180,-37.217735
1944890,-9.179195,-1.694179,3.077280,-10.220000,-6.370000,1.260000,44.098198,-222.619736,-36.814487
1944910,-8.875296,-1.550604,3.122745,-10.220000,-6.370000,0.910000,44.183865,-221.561356,-35.786335
1944930,-9.090658,-1.840146,3.242390,-9.310000,-4.410000,1.680000,43.643875,-221.998260,-35.719978
1944945,-9.418487,-2.179939,3.283070,-2.100000,-4.270000,3.850000,41.435619,-220.556183,-35.309368
1944965,-9.346699,-1.794681,3.058136,7.140000,-4.270000,6.090000,43.100498,-221.115738,-36.120640
1944985,-9.286877,-1.316099,2.806881,7.210000,-3.850000,7.910000,44.257038,-223.425659,-35.556557
1945005,-9.291662,-1.323278,2.636985,-0.840000,-2.870000,8.540000,43.955666,-219.930695,-35.635929
1945020,-9.270126,-1.641535,2.629806,-7.280000,-1.120000,7.280000,43.865719,-220.710205,-35.633320
1945040,-9.188767,-1.713322,2.708772,-9.590000,0.420000,5.810000,42.378551,-220.471802,-36.842770
1945060,-9.116980,-1.907148,2.881061,-9.590000,2.310000,3.990000,45.760864,-225.540253,-35.801289
1945080,-8.923154,-2.134474,3.105995,-6.930000,3.780000,1.960000,45.073204,-223.568970,-35.867802
1945095,-8.901618,-2.433588,3.156246,0.210000,4.970000,-0.420000,45.102787,-222.242599,-35.352509
1945115,-8.949476,-2.380944,3.283070,9.240000,4.480000,-2.450000,44.018993,-222.076843,-36.857910
1945135,-9.160052,-2.079437,3.220854,15.050000,3.220000,-4.480000,44.592377,-221.353134,-34.770859
1945155,-9.272519,-1.871254,3.182568,14.700000,0.140000,-6.720000,44.587666,-221.354126,-34.911190
1945170,-9.262947,-1.816217,3.122745,11.900000,-3.150000,-8.610000,45.286064,-222.003021,-34.890705
1945190,-9.392164,-1.763573,2.921741,9.660000,-5.600000,-9.520000,42.554943,-222.113358,-38.536804
1945210,-9.566847,-1.665464,2.670485,7.910000,-7.840000,-10.640000,43.853664,-223.353012,-35.260605
1945230,-9.459166,-1.466853,2.488624,5.810000,-9.100000,-11.550000,45.510872,-222.314255,-35.508129
1945245,-9.344306,-1.519497,2.345050,3.920000,-8.330000,-12.180000,44.193283,-221.559372,-35.505672
1945265,-9.351485,-1.533854,2.397694,3.710000,-6.090000,-12.390000,45.366589,-221.225494,-35.173973
1945285,-9.351485,-1.533854,2.514946,4.200000,-3.920000,-12.180000,45.227016,-220.135742,-34.699493
1945305,-9.349092,-1.670250,2.517339,5.040000,-1.960000,-11.900000,44.318726,-222.652100,-36.401146
1945320,-9.229446,-1.706143,2.548447,5.460000,-1.050000,-12.110000,44.843262,-223.538574,-36.561806
1945340,-9.109801,-1.655892,2.627413,2.590000,-0.280000,-13.230000,44.444275,-219.224823,-36.074814
1945360,-9.093051,-1.797074,2.636985,-3.360000,0.770000,-14.490000,43.873390,-222.308502,-36.197067
1945380,-9.224661,-2.033972,2.692022,-9.590000,1.610000,-15.330000,44.438675,-220.266357,-34.717365
1945395,-9.174410,-2.318728,2.703986,-15.330000,1.470000,-16.730000,44.851471,-220.337021,-34.732655
1945415,-9.047585,-2.617841,2.782952,-19.530001,1.960000,-18.690001,44.118786,-221.015488,-35.408760
1945435,-8.949476,-3.041386,2.823632,-21.559999,2.310000,-22.049999,43.820694,-223.359955,-36.242916
1945455,-9.121766,-3.192139,2.773381,-20.930000,2.380000,-26.670000,44.424545,-220.269333,-35.138355
1945470,-9.169623,-3.539111,2.696807,-13.440001,3.570000,-32.549999,45.687798,-219.155945,-34.809265
1945490,-9.021263,-3.436216,2.581948,-2.380000,4.130000,-35.139999,44.239517,-222.109207,-36.444565
1945510,-9.078693,-3.938727,2.658521,9.030000,5.670000,-37.240002,44.047253,-222.070908,-36.015930
1945530,-9.131337,-3.728151,2.536483,21.350000,6.930000,-37.799999,42.535213,-223.157883,-37.600342
1945545,-8.860939,-3.263927,2.419230,29.190001,9.030000,-37.660000,45.360558,-222.546906,-34.987617
1945565,-8.961441,-3.046172,2.323514,28.420000,11.130000,-39.130001,46.013607,-221.605408,-35.526028
1945585,-9.035621,-4.264162,2.388122,27.230000,14.770000,-41.439999,45.438122,-220.170090,-34.566811
1945605,-8.911190,-3.716186,2.144046,32.619999,17.430000,-41.369999,47.030575,-222.825592,-34.487461
1945620,-8.815474,-3.292642,2.098580,32.759998,18.410000,-40.180000,44.183434,-221.841217,-36.957428
1945640,-9.198339,-3.756866,2.179939,35.209999,22.540001,-41.790001,43.087688,-219.798279,-36.868317
1945660,-9.133730,-3.508003,2.148831,38.360001,23.100000,-42.209999,43.687153,-220.948792,-35.954788
1945680,-9.188767,-4.132552,2.136867,37.029999,23.450001,-44.869999,43.857941,-223.631897,-36.291370
1945695,-9.404129,-4.228269,2.256512,44.869999,23.520000,-47.810001,41.344814,-221.895432,-37.648949
1945715,-9.406522,-3.780795,2.285227,52.009998,21.350000,-49.490002,44.694702,-222.170944,-35.196884
1945735,-9.231839,-4.496274,2.024400,53.410000,17.850000,-53.270000,43.780376,-226.008713,-36.712181
1945755,-9.384986,-5.403186,2.220619,59.010002,15.750000,-58.520000,44.489944,-225.055328,-35.566631
1945770,-9.310805,-4.977249,1.899969,66.220001,12.390000,-62.930000,45.118664,-220.639343,-34.087105
1945790,-9.569240,-5.429509,1.801860,65.519997,11.340000,-71.750000,44.603008,-224.550735,-36.038685
1945810,-9.693670,-5.594619,1.950220,59.709999,10.570000,-81.970001,44.168842,-222.604874,-34.709538
1945830,-9.743921,-5.841089,1.916719,50.540001,8.960000,-91.209999,43.789799,-226.006729,-36.431519
1945845,-9.200731,-4.527382,1.959792,53.200001,7.140000,-91.209999,43.594570,-224.369125,-35.298805
1945865,-8.480466,-3.204104,1.524282,44.590000,7.560000,-90.510002,42.994217,-224.259155,-34.714550
1945885,-8.657541,-5.063394,1.593677,10.360000,11.410000,-100.309998,41.286522,-223.988403,-36.337345
1945905,-8.334499,-6.223954,1.203633,-30.030001,15.610000,-110.459999,42.034977,-226.226669,-35.617641
1945920,-8.494823,-6.889183,1.545819,-49.070000,17.920000,-111.930000,40.412518,-225.177414,-37.383373
1945940,-7.492195,-3.898047,0.990664,-67.760002,22.750000,-102.129997,45.401520,-228.378387,-34.619762
1945960,-7.295977,-3.869332,-0.062216,-103.949997,26.950001,-96.739998,42.565868,-230.031876,-36.015362
1945980,-7.200261,-6.970541,0.705908,-118.370003,35.840000,-86.519997,42.803589,-227.140579,-34.663303
1945996,-6.599640,-6.479995,0.301506,-98.419998,36.259998,-78.330002,41.780167,-227.521667,-36.686607
1946016,-6.324456,-6.702536,0.696336,-72.940002,40.040001,-72.309998,42.450733,-227.896637,-36.337013
1946036,-6.965755,-6.403422,-0.124431,-56.490002,46.060001,-67.620003,42.137730,-226.764618,-34.872574
1946056,-6.551782,-4.314413,-0.306292,-52.220001,48.369999,-48.860001,45.108570,-230.441971,-34.142490
1946071,-6.405815,-6.489567,0.067001,-52.920002,45.570000,-43.189999,44.065952,-227.067734,-32.836433
1946091,-6.099523,-6.671428,-0.564726,-34.369999,47.459999,-34.790001,42.961113,-229.266891,-33.078682
1946111,-5.905697,-6.185668,-0.856661,-3.430000,44.170002,-25.690001,43.853096,-228.633682,-33.813526
1946131,-6.401029,-4.797781,-0.402009,-8.190000,44.310001,-19.530001,45.308155,-228.319260,-31.244196
1946146,-7.020792,-7.240940,0.110074,-45.779999,42.139999,-17.360001,42.836880,-231.373749,-33.731701
1946166,-5.829124,-9.681706,0.899733,-35.349998,26.600000,-13.230000,41.951813,-229.645035,-34.680996
1946186,-6.178489,-9.286877,1.249098,-9.310000,17.639999,-13.160000,41.609238,-229.839371,-33.731853
1946206,-6.458459,-10.373257,0.547976,9.030000,9.520000,-16.940001,43.153812,-229.025330,-32.336224
1946221,-5.843482,-8.875296,-0.279970,26.600000,3.080000,-20.160000,41.766006,-228.005447,-33.267624
1946241,-6.051664,-3.582183,-0.222540,18.340000,2.380000,-11.340000,42.754715,-229.231567,-33.071037
1946261,-6.293348,-11.277776,-0.813589,8.960000,1.050000,-20.370001,42.796673,-229.502518,-32.979168
1946281,-5.281148,-7.839167,-0.603013,26.040001,2.100000,-19.670000,40.549419,-229.388794,-33.364506
1946296,-6.245490,-6.482388,-0.272792,13.650000,0.840000,-20.160000,42.798851,-227.622345,-30.963657
1946316,-6.125845,-6.513496,-0.332614,-22.400000,-4.690000,-21.840000,43.315182,-231.710419,-32.953465
1946336,-5.642478,-7.891811,-0.409187,-48.930000,-13.720000,-23.520000,40.867565,-230.239944,-33.517521
1946356,-5.862625,-8.387143,-0.189040,-58.240002,-23.240000,-23.940001,42.941494,-225.791397,-30.920422
1946371,-5.778873,-8.413465,0.059823,-49.349998,-32.970001,-21.559999,41.563000,-229.289536,-32.792961
1946391,-6.434530,-7.367764,0.856661,-46.549999,-43.330002,-18.969999,43.854385,-227.794052,-30.300236
1946411,-6.630748,-8.229211,1.203633,-53.340000,-56.910000,-19.530001,41.983463,-230.958496,-33.372002
1946431,-6.106701,-9.152873,1.361565,-42.910000,-67.970001,-17.639999,40.963535,-228.139038,-33.706486
1946446,-6.042093,-9.384986,1.234741,-7.630000,-75.250000,-13.650000,43.667610,-231.234207,-32.450859
1946466,-6.446495,-10.464187,2.105759,63.700001,-79.730003,-5.740000,42.210022,-229.669449,-33.145012
1946486,-5.960734,-9.530953,0.856661,127.750000,-77.629997,4.270000,40.295498,-229.643250,-35.931263
1946506,-5.900911,-8.557039,1.127060,162.259995,-70.629997,17.080000,39.739632,-231.683426,-37.130306
1946521,-5.692729,-8.655149,0.897341,169.889999,-59.500000,24.570000,41.492352,-229.304413,-34.897911
1946541,-5.295506,-8.054528,-0.172289,167.089996,-45.779999,32.619999,41.175426,-231.652863,-36.293388
1946561,-4.544132,-6.982506,-1.356779,160.229996,-27.370001,43.400002,40.420616,-226.495850,-36.776031
1946581,-4.560883,-5.970306,-1.239526,165.130005,-1.190000,57.189999,43.208607,-230.132919,-35.336651
1946596,-5.276362,-5.556333,-1.091166,182.699997,24.010000,69.720001,40.198772,-227.783905,-36.862686
1946616,-5.790838,-4.474738,-0.466617,184.100006,43.680000,78.330002,43.363625,-229.899277,-35.716831
1946636,-6.527853,-3.809510,0.813589,150.009995,56.980000,83.160004,41.404938,-231.963104,-36.770481
1946656,-7.152402,-4.390986,1.754002,107.730003,63.209999,87.849998,38.675999,-230.193268,-38.401073
1946671,-7.331871,-4.048800,1.986114,84.769997,64.820000,97.160004,41.161297,-231.655838,-36.714378
1946691,-7.401265,-3.405108,1.911934,62.650002,64.470001,105.139999,41.524460,-229.857224,-36.257793
1946711,-8.667113,-3.843010,1.823396,27.650000,65.940002,109.760002,39.290478,-230.300262,-38.564342
1946731,-9.306020,-4.881533,2.017221,-6.580000,61.459999,110.180000,38.762554,-228.094345,-38.870697
1946747,-9.375414,-5.391222,2.792524,-22.049999,56.000000,110.110001,40.307014,-231.800323,-38.696873
1946767,-9.621883,-6.049272,3.318964,-16.940001,47.950001,108.220001,40.628658,-229.450882,-37.161064
1946787,-10.064571,-5.831517,4.170839,-17.710001,35.910000,104.300003,41.903076,-226.735229,-35.706909
1946807,-10.435472,-5.080144,3.457752,-39.900002,27.230000,93.239998,41.852909,-229.665848,-37.627926
1946822,-10.454616,-6.554175,3.091637,-62.090000,15.330000,76.019997,42.938019,-228.511185,-36.449215
1946842,-10.035856,-7.365371,3.218461,-53.970001,7.490000,61.320000,40.996532,-227.651306,-36.564156
1946862,-9.901854,-6.685785,2.223012,-42.770000,6.090000,46.900002,44.839302,-227.499832,-35.581741
1946882,-10.124394,-6.317277,2.148831,-46.060001,2.310000,31.430000,45.031895,-231.778259,-36.061085
1946897,-9.325163,-6.652285,1.957399,-36.820000,2.100000,16.240000,41.680801,-228.303162,-36.964657
1946917,-9.262947,-5.970306,2.258905,-35.420002,1.120000,3.500000,42.596764,-227.385101,-35.826756
1946937,-8.698221,-5.735801,2.184725,-41.720001,0.280000,-7.350000,42.245224,-226.820770,-37.827152
1946957,-8.616862,-5.721443,2.041151,-52.360001,-2.450000,-13.300000,42.420723,-229.502869,-38.023403
1946972,-8.736507,-5.927233,1.768359,-53.270000,-4.480000,-22.400000,44.337776,-231.408249,-37.112331
1946992,-8.255533,-5.525225,1.895183,-47.529999,-8.680000,-28.840000,41.837570,-226.469238,-36.500435
1947012,-7.987527,-5.424723,1.990900,-47.459999,-12.250000,-36.330002,43.636848,-228.880188,-35.257641
1947032,-8.269891,-6.692964,1.464460,-47.670002,-13.090000,-46.060001,43.807205,-231.843185,-36.765316
1947047,-7.563982,-6.910718,1.756395,-28.980000,-13.300000,-49.209999,42.082855,-229.696213,-36.933926
1947067,-7.561590,-6.599640,1.194061,2.800000,-10.010000,-52.570000,43.812027,-227.322174,-35.403183
1947087,-7.384514,-5.463009,1.067237,40.529999,-6.160000,-52.080002,43.928482,-228.137009,-35.408222
1947107,-7.518517,-4.242626,0.363722,58.099998,0.210000,-49.209999,41.937363,-225.407867,-35.051285
1947122,-7.004042,-3.890869,0.275184,53.970001,12.880000,-43.680000,41.735565,-229.891556,-36.125111
1947142,-7.260083,-5.635299,-0.119645,57.470001,27.160000,-42.630001,41.578045,-227.765228,-37.709732
1947162,-7.736272,-6.006199,-0.181861,81.269997,33.459999,-42.000000,42.660519,-229.251389,-35.877640
1947182,-7.202653,-3.302213,0.126824,98.629997,33.110001,-37.380001,42.991470,-231.419998,-35.282978
1947197,-6.305313,-2.120116,1.069630,77.070000,31.080000,-29.469999,43.832508,-230.237915,-35.219257
1947217,-5.788445,-2.141653,0.995450,37.240002,29.120001,-16.240000,42.287613,-226.811844,-36.564178
1947237,-6.637927,-3.807117,0.741802,0.210000,27.790001,-7.630000,43.522038,-230.985062,-35.629993
1947257,-7.413229,-4.883925,1.225169,-13.860000,24.710001,-1.540000,43.192726,-231.736191,-36.602047
1947272,-8.037778,-4.472345,1.545819,-15.260000,20.090000,4.620000,40.785427,-227.616959,-36.696838
1947292,-8.609683,-4.393379,1.450102,-29.120001,15.330000,10.850000,41.455994,-227.991913,-36.347240
1947312,-9.095444,-6.099523,1.689393,-35.209999,13.510000,11.410000,43.768318,-228.651520,-36.339466
1947332,-9.349092,-7.305548,2.316335,-22.680000,11.550000,6.580000,40.788387,-229.216263,-37.400917
1947347,-9.071514,-6.470424,2.385729,-4.690000,8.750000,2.590000,42.113644,-231.569458,-37.967117
1947367,-9.145695,-5.154324,1.966970,-9.730000,8.120000,-1.470000,40.230450,-228.616592,-39.393661
1947387,-9.655384,-5.865018,1.354386,-31.360001,9.730000,-9.520000,39.833530,-226.942657,-38.112976
1947407,-9.277305,-5.197396,1.672643,-35.420002,7.070000,-13.580000,41.897827,-231.536102,-38.240135
1947422,-8.997334,-5.221325,1.363958,-40.389999,5.040000,-19.320000,41.214878,-229.563828,-38.166313
1947442,-9.325163,-7.092579,2.089009,-41.650002,1.050000,-30.799999,41.503445,-231.741364,-38.834621
1947462,-8.035385,-5.386436,2.665700,-31.219999,-10.570000,-34.439999,40.217182,-228.059814,-37.472458
1947482,-6.714500,-1.119881,1.684607,-64.470001,-20.860001,-29.680000,40.831661,-228.166794,-37.635727
1947498,-6.403422,-2.677664,-1.474031,-134.119995,-23.030001,-28.280001,38.655518,-227.277527,-38.585003
1947518,-6.262240,-6.264633,-1.612820,-175.210007,-16.100000,-32.340000,40.328926,-228.875641,-37.617825
1947538,-5.850660,-8.348856,-1.148596,-166.460007,-10.360000,-33.110001,39.634026,-225.026184,-35.949493
1947558,-5.465402,-8.032992,-0.222540,-117.529999,-5.180000,-26.320000,40.394428,-229.141647,-36.824303
1947573,-5.556333,-7.147616,-1.782717,-84.769997,-5.250000,-29.540001,39.456669,-228.464355,-37.819450
1947593,-5.331399,-6.640320,-2.869097,-57.889999,2.870000,-25.900000,39.254089,-229.468582,-36.173695
1947613,-6.149774,-5.197396,-1.830575,-49.840000,15.120000,-20.650000,38.229454,-226.650101,-36.648506
1947633,-6.006199,-6.080379,-1.454888,-63.000000,22.400000,-16.450001,37.231754,-225.146088,-35.954659
1947648,-6.305313,-6.336421,-0.708301,-58.450001,30.799999,-7.840000,37.445393,-227.059601,-37.697151
1947668,-9.071514,-8.554646,2.548447,-42.560001,29.680000,-2.660000,37.102818,-227.253937,-36.748001
1947688,-10.543153,-9.478309,5.065786,7.770000,11.130000,-2.170000,39.429699,-227.630692,-35.148144
1947708,-9.710421,-8.590540,2.376158,70.000000,-11.480000,-2.870000,37.856087,-224.971222,-34.666168
1947723,-7.997099,-7.707557,-0.957163,99.050003,-11.620000,-2.380000,39.041348,-226.514526,-35.928986
1947743,-7.681235,-9.023657,-1.062451,121.099998,4.270000,-0.980000,37.103245,-226.974060,-35.576908
1947763,-8.092815,-9.842031,0.189040,157.919998,16.030001,-4.690000,36.399277,-226.885925,-38.079910
1947783,-7.501767,-8.138281,0.411580,202.789993,20.719999,-2.660000,38.228134,-227.970520,-36.321823
1947798,-7.441944,-4.096659,0.538404,199.149994,18.900000,0.700000,35.621677,-225.694138,-38.143806
1947818,-7.121294,-4.156481,-0.679586,134.610001,20.790001,1.400000,39.379532,-230.561310,-37.069164
1947838,-7.339049,-6.530246,0.576691,89.599998,22.680000,-1.750000,40.784107,-228.937393,-36.370152
1947858,-7.166760,-6.889183,0.447474,88.550003,20.719999,-2.310000,39.793648,-229.311539,-37.411144
1947873,-6.884397,-5.824338,0.622156,78.680000,16.309999,-1.050000,36.389858,-226.887909,-38.360573
1947893,-6.841324,-6.465638,1.182097,55.160000,9.730000,-1.890000,40.431675,-229.413589,-36.872757
1947913,-6.580497,-7.348621,1.036129,43.680000,3.010000,-3.710000,39.236145,-228.431992,-38.232796
1947933,-6.345992,-7.755415,1.550604,36.959999,-4.900000,-7.700000,38.582771,-225.133362,-37.643681
1947948,-5.561119,-7.470659,0.983485,32.270000,-11.410000,-11.410000,39.123081,-228.936584,-37.760742
1947968,-5.754944,-7.925312,0.098109,24.850000,-11.130000,-16.379999,39.752121,-228.760727,-36.331921
1947988,-7.171546,-6.767144,0.775302,19.040001,-13.580000,-17.290001,39.233074,-231.352707,-38.750515
1948008,-7.640555,-5.671192,1.471638,17.500000,-17.290001,-11.690000,37.132744,-229.686905,-40.123386
1948023,-7.647734,-5.628120,1.586498,9.240000,-19.530001,-10.500000,40.782356,-230.537659,-37.214561
1948043,-7.590304,-6.073201,1.576926,-3.570000,-20.650000,-8.960000,37.991730,-229.541428,-38.000565
1948063,-7.547232,-6.573318,1.765966,-2.450000,-20.930000,-7.070000,38.126591,-230.632172,-38.615379
1948083,-7.609448,-6.944219,0.138789,-1.190000,-17.150000,-4.480000,36.520012,-227.979645,-39.115711
1948098,-8.470895,-6.092344,0.454653,9.730000,-5.110000,-0.910000,39.167999,-230.806824,-38.372948
1948118,-9.650599,-6.195239,1.715715,13.230000,0.910000,-2.170000,37.790043,-229.505096,-37.852589
1948138,-9.509417,-6.434530,2.328300,8.820000,-2.030000,-5.110000,36.611595,-230.119843,-39.495712
1948158,-8.827438,-6.527853,2.330693,10.290000,-5.530000,-4.060000,35.804417,-230.254425,-40.074909
1948173,-7.875061,-5.534796,1.452495,11.130000,-5.810000,-1.190000,36.284035,-229.270676,-39.623360
1948193,-7.164367,-4.773852,-0.050251,3.080000,3.220000,4.900000,33.727634,-228.583679,-40.746128
1948213,-7.626198,-6.022950,1.263456,-1.330000,7.910000,6.720000,36.716881,-232.536957,-40.625820
1948233,-8.631220,-7.252904,3.531932,9.730000,-0.140000,6.090000,36.580379,-228.526489,-39.633614
1948249,-8.820259,-6.767144,2.802095,21.350000,-10.290000,8.120000,35.848125,-228.925095,-39.138626
1948269,-7.351014,-5.766909,0.897341,15.610000,-16.590000,6.790000,37.400368,-229.709351,-38.306744
1948289,-6.530246,-5.908090,1.227562,-3.640000,-14.210000,6.090000,36.872761,-231.743576,-38.663803
1948309,-6.350778,-7.279226,1.966970,-11.620000,-11.060000,4.410000,37.710838,-228.962204,-37.896008
1948324,-6.609212,-7.621412,2.603484,-7.070000,-9.800000,4.340000,37.094173,-230.735382,-39.748249
1948344,-6.831753,-7.360585,2.541268,3.710000,-10.360000,3.290000,36.008286,-228.410583,-38.207375
1948364,-6.618784,-6.939434,2.692022,0.770000,-10.430000,2.030000,37.484283,-230.251251,-38.122993
1948384,-6.482388,-7.025578,2.715951,-2.870000,-9.170000,0.210000,37.504009,-229.206741,-39.059460
1948399,-7.389300,-7.317513,3.426644,1.680000,-13.300000,-1.470000,37.477821,-231.852554,-39.107731
1948419,-7.205046,-6.815002,3.010278,3.360000,-22.400000,-3.010000,38.222996,-228.251389,-37.633247
1948439,-6.539818,-6.855682,1.378315,8.890000,-25.480000,-2.310000,38.008823,-231.137756,-38.283653
1948459,-6.180882,-6.374707,1.792288,30.590000,-20.299999,-0.420000,36.361492,-231.413849,-40.424351
1948474,-6.372314,-6.549389,0.375687,32.549999,-12.670000,-1.190000,37.208099,-229.671051,-37.878105
1948494,-7.520910,-6.324456,2.017221,27.860001,-7.490000,2.030000,36.447155,-230.355469,-39.396194
1948514,-7.209832,-5.233290,1.756395,11.270000,-7.280000,2.800000,38.016598,-228.216049,-37.625603
1948534,-6.879611,-6.185668,0.758552,-19.250000,-7.070000,0.490000,35.514103,-229.677200,-40.251011
1948549,-6.709714,-6.391458,0.478582,-32.060001,-0.560000,1.400000,38.596790,-229.650375,-38.444492
1948569,-6.350778,-5.865018,1.512318,-34.720001,6.510000,7.490000,37.385807,-229.992188,-39.898830
1948589,-6.374707,-3.567826,2.699200,-34.020000,7.770000,20.020000,37.427765,-230.263138,-39.806957
1948609,-7.037543,-5.463009,2.132081,-59.920002,1.540000,24.850000,38.857525,-231.553986,-38.783684
1948624,-7.406051,-9.514202,1.028950,-79.169998,-0.770000,17.219999,36.024940,-230.286789,-39.661564
1948644,-7.092579,-10.284719,0.988271,-59.990002,0.000000,7.350000,34.556618,-230.044418,-40.309696
1948664,-6.913112,-9.408915,1.832968,-35.910000,2.450000,-3.500000,36.087379,-233.473495,-39.385761
1948684,-7.185903,-7.994706,3.510396,-17.780001,-0.910000,-7.980000,36.624405,-231.437302,-38.748035
1948699,-7.240940,-5.757337,3.096423,3.640000,-10.920000,-3.920000,37.375931,-230.754868,-37.510609
1948719,-6.264633,-4.386200,1.955006,2.240000,-17.360001,4.480000,34.903442,-230.609772,-38.449627
1948739,-7.032757,-6.688178,3.445788,2.100000,-19.180000,8.050000,34.465351,-232.144348,-39.980400
1948759,-7.654913,-6.391458,1.988507,28.420000,-19.250000,14.490000,32.742210,-233.196991,-41.697495
1948774,-7.872668,-5.891340,1.203633,34.720001,-17.150000,14.910000,33.535259,-233.065384,-41.539291
1948794,-7.994706,-6.877218,2.012436,24.500000,-12.670000,12.250000,34.437519,-231.870422,-39.651283
1948814,-8.415857,-6.659463,2.507768,19.250000,-9.870000,11.060000,36.096478,-229.231369,-39.054394
1948834,-8.913583,-7.650127,2.376158,23.309999,-8.890000,8.610000,35.744049,-229.707565,-39.557007
1948849,-8.686256,-6.451280,2.156010,30.940001,-9.940000,6.720000,33.752823,-231.498444,-40.421871
1948869,-8.442180,-6.063629,2.802095,26.180000,-12.810000,3.290000,33.438965,-230.926163,-41.299622
1948889,-8.841795,-6.154560,3.374000,16.379999,-14.980000,-6.160000,34.474770,-232.142365,-39.699741
1948909,-9.526167,-6.092344,3.862154,12.810000,-24.150000,-9.800000,35.854473,-231.843826,-39.375687
1948924,-9.073908,-5.848268,3.531932,13.720000,-27.370001,-9.730000,35.817226,-231.571884,-39.327229
1948944,-9.291662,-4.836067,2.586734,11.550000,-31.710001,-11.900000,36.354145,-234.055679,-39.911304
1948964,-8.178960,-4.424487,2.828417,3.220000,-33.110001,-11.200000,35.327324,-233.117355,-42.401630
1948984,-8.028207,-4.256983,2.620234,-19.879999,-31.500000,-8.960000,35.900280,-232.673523,-41.485676
1949000,-7.927704,-4.379022,2.462302,-54.529999,-33.180000,-0.280000,34.149307,-233.452225,-42.873657
1949020,-7.843953,-4.178018,2.514946,-88.199997,-35.560001,-3.850000,35.362820,-234.989594,-43.294495
1949040,-9.461558,-5.443866,3.239998,-93.169998,-39.759998,-22.260000,34.864044,-231.737198,-44.256653
1949060,-6.621177,-6.633141,4.757101,-89.599998,-61.459999,-15.680000,34.250343,-235.109650,-46.812969
1949075,-0.191433,-8.212461,0.758552,-90.650002,-47.810001,1.610000,37.871265,-236.246246,-45.917221
1949095,-8.028207,-10.827909,-1.768359,-76.720001,-30.309999,-16.590000,36.781986,-232.602020,-44.843365
1949115,-7.295977,-6.949005,-1.658285,-79.169998,15.190001,-10.780000,37.304340,-235.368683,-47.019531
1949135,-4.237840,-12.069828,-0.351757,-19.809999,-9.240000,-3.290000,35.117996,-231.001938,-45.529877
1949150,-2.354622,-6.810216,-0.775302,23.730000,-0.420000,-8.190000,32.826607,-232.497421,-48.022598
1949170,-4.642241,-6.970541,2.057901,26.950001,2.170000,-2.310000,34.365154,-233.004776,-46.440620
1949190,-4.161267,-6.360350,2.045936,35.910000,-6.090000,7.560000,38.023758,-234.133438,-44.422222
1949210,-4.541739,-6.140202,1.667857,38.920002,-5.320000,9.940000,34.377533,-234.602097,-46.864037
1949225,-5.506082,-5.302684,1.742037,29.960001,-4.060000,6.930000,36.122154,-230.904663,-45.238991
1949245,-6.527853,-7.063865,1.744430,9.870000,-0.560000,3.710000,33.980186,-233.208038,-46.754440
1949265,-5.501296,-10.282326,2.105759,16.730000,-6.370000,0.630000,38.206253,-230.414383,-41.240837
1949285,-4.941355,-9.772636,2.500589,50.330002,1.890000,-1.750000,35.568470,-231.064682,-44.422531
1949300,-5.582654,-6.781502,1.976542,84.769997,10.360000,5.040000,36.121265,-231.945221,-43.741211
1949320,-6.822181,-3.460145,3.555861,69.370003,6.860000,15.820000,34.249561,-231.630203,-44.093391
1949340,-7.678842,-6.314885,2.543661,19.040001,1.190000,9.940000,34.773212,-233.557236,-42.756264
1949360,-7.827202,-7.035150,3.074887,-7.350000,-6.930000,3.500000,35.406101,-233.940125,-43.529308
1949375,-8.346463,-8.253140,3.019850,-8.610000,-11.830000,-3.780000,33.766872,-235.534668,-45.062660
1949395,-8.389536,-7.671663,3.091637,10.500000,-15.330000,-7.980000,34.813526,-230.908478,-42.286995
1949415,-9.222268,-6.161738,3.096423,14.420000,-18.690001,-7.280000,34.491001,-234.298431,-42.325020
1949435,-9.198339,-5.989449,3.594148,19.809999,-26.740000,-7.280000,33.772121,-230.733795,-42.529427
1949450,-7.965991,-5.439080,3.175389,18.200001,-34.160000,-9.590000,35.612495,-233.975464,-43.536949
1949470,-7.511339,-4.134945,2.969599,-6.860000,-29.400000,-12.460000,35.881443,-232.677490,-42.046993
1949490,-7.654913,-5.989449,2.945670,-47.880001,-23.030001,-18.690001,34.818127,-235.427475,-43.368469
1949510,-4.974856,-7.839167,2.596305,-41.020000,-22.680000,-13.580000,33.723164,-236.863998,-45.998940
1949525,-4.455595,-7.087794,2.761416,-12.250000,-15.610000,-2.800000,34.719654,-235.168427,-45.144306
1949545,-5.144753,-6.860467,3.448181,0.210000,-6.230000,4.480000,32.880489,-235.126358,-45.685265
1949565,-5.783659,-8.147852,4.639849,4.060000,-4.130000,3.780000,33.915863,-236.622437,-45.256481
1949585,-6.396243,-8.518753,1.722894,-42.349998,-10.290000,-3.220000,34.067924,-234.789505,-44.932583
1949600,-6.882004,-8.865725,2.986349,8.890000,-2.870000,-9.310000,36.119835,-237.785629,-44.636318
1949620,-8.791544,-5.702300,2.402480,9.800000,-1.540000,-17.639999,33.788353,-232.889877,-45.154713
1949640,-7.942062,-5.903304,2.022007,-23.170000,-10.710000,-23.590000,34.440834,-237.229050,-44.246040
1949660,-6.915504,-5.934412,2.964813,-40.250000,-17.500000,-27.370001,34.808277,-235.709335,-44.820229
1949675,-6.637927,-6.613998,2.940884,-41.020000,-23.450001,-24.430000,33.982258,-235.847885,-45.960735
1949695,-6.994470,-6.958577,2.215833,-35.770000,-26.110001,-18.549999,36.107456,-236.188309,-44.212902
1949715,-6.226347,-5.374472,1.189275,-45.570000,-27.510000,-11.690000,35.157207,-238.433716,-46.006435
1949735,-6.037307,-6.877218,3.496039,-30.030001,-27.580000,-12.040000,34.148338,-238.531982,-46.437653
1949750,-5.161503,-6.535032,2.931312,-54.040001,-36.750000,-12.460000,34.970539,-237.353867,-46.935249
1949770,-5.077751,-7.465873,2.129688,-40.599998,-36.610001,-6.230000,34.309387,-236.976944,-47.004189
1949790,-4.728386,-7.733879,1.947827,-32.480000,-34.299999,-4.130000,34.133778,-238.814819,-48.029736
1949810,-5.025107,-9.016478,2.055508,-28.980000,-30.450001,-1.260000,36.952667,-239.805115,-46.401749
1949825,-4.826496,-8.088029,2.543661,-12.600000,-22.960001,-0.210000,35.141327,-240.036987,-47.271832
1949845,-5.015535,-7.037543,2.601091,-5.950000,-15.400000,-2.100000,33.735111,-238.741196,-47.593452
1949865,-5.163896,-7.951633,2.603484,1.470000,-8.610000,-0.560000,36.762581,-237.886658,-43.957607
1949885,-5.187825,-6.999256,1.727680,17.570000,-1.680000,5.950000,34.424095,-239.392044,-47.853630
1949900,-4.871961,-6.049272,1.521890,28.280001,7.280000,15.470000,34.573086,-240.479813,-48.047455
1949920,-5.587440,-5.410365,3.091637,23.379999,15.190001,23.730000,35.892422,-239.634415,-47.205502
1949940,-5.843482,-5.853053,3.543897,1.260000,13.230000,31.430000,35.205196,-237.383270,-46.100914
1949960,-6.245490,-6.226347,3.003100,-20.860001,9.310000,38.920002,35.458256,-237.688553,-45.876354
1949975,-6.561354,-7.760201,2.194297,-37.170002,2.870000,42.070000,34.273891,-235.104706,-46.111320
1949995,-6.345992,-9.743921,2.445552,-23.100000,-2.240000,38.080002,34.388596,-237.519836,-46.960766
1950015,-8.016242,-10.559903,4.687707,-5.390000,-6.440000,22.960001,37.586418,-239.628281,-44.832603
1950035,-9.660170,-7.645341,3.228033,-14.350000,-10.710000,9.800000,35.836761,-239.086578,-46.547268
1950050,-9.332341,-6.661856,3.378786,-28.770000,-25.690001,1.470000,34.664776,-238.100037,-47.205654
1950070,-7.252904,-8.107173,2.586734,-41.439999,-35.070000,-2.800000,36.413998,-238.921600,-46.662083
1950090,-6.166524,-8.231604,3.091637,-44.099998,-32.200001,-7.700000,34.065746,-236.669662,-46.948082
1950110,-6.606819,-6.989685,3.364429,-45.360001,-29.260000,-11.550000,36.462845,-237.311417,-44.414375
1950125,-6.226347,-7.367764,2.589127,-52.080002,-28.840000,-10.010000,34.606052,-240.472885,-47.065147
1950145,-4.874354,-7.767380,1.777931,-43.049999,-26.460001,-5.530000,35.515232,-236.915985,-46.861271
1950165,-4.237840,-8.260319,1.488389,-23.309999,-18.969999,-2.310000,36.184483,-238.611374,-46.184990
1950185,-5.087323,-8.597719,2.309156,-2.800000,-12.530000,-0.910000,36.330513,-238.099838,-45.674736
1950201,-5.439080,-7.061472,1.698965,9.660000,-8.610000,0.630000,35.616669,-238.774338,-45.789520
1950221,-5.053822,-8.061707,1.019379,20.370001,-5.530000,0.770000,35.431641,-240.614212,-47.095730
1950241,-5.953555,-7.877453,0.837518,36.470001,1.960000,-2.450000,34.647690,-236.503708,-46.922565
1950261,-6.281384,-7.791309,0.890162,49.420002,9.240000,-3.500000,35.599152,-237.457886,-46.677525
1950276,-6.319670,-6.444101,1.328064,51.869999,11.900000,-0.770000,32.765701,-236.750427,-49.897602
1950296,-6.087558,-5.888947,1.072023,53.900002,10.850000,7.700000,35.438988,-237.972382,-47.608776
1950316,-6.606819,-5.250041,2.613056,58.590000,3.290000,21.350000,34.378315,-238.081558,-49.583622
1950336,-6.946612,-2.196690,2.110545,20.719999,-2.800000,26.250000,34.860893,-238.697098,-49.836155
1950351,-7.496981,-3.594148,2.254119,-65.660004,1.680000,18.410000,35.081417,-238.729446,-49.422810
1950371,-6.264633,-7.913347,1.457281,-117.459999,1.750000,15.470000,34.979095,-237.911636,-48.996784
1950391,-5.544368,-10.502474,3.527147,-101.290001,-0.980000,10.780000,35.595757,-236.138458,-47.144543
1950411,-5.843482,-9.899461,4.536954,-56.000000,-10.010000,12.250000,34.936680,-238.401367,-46.419777
1950426,-5.872197,-9.545310,4.343128,-34.509998,-21.559999,11.130000,35.492546,-236.361206,-45.220730
1950446,-6.142595,-8.748472,2.263691,-15.120000,-32.830002,9.870000,36.186665,-236.731201,-44.169487
1950466,-5.771694,-9.392164,0.662836,3.710000,-31.639999,7.070000,36.980141,-236.319717,-42.840183
1950486,-5.166288,-8.870510,-0.028715,42.490002,-15.750000,7.420000,36.860733,-233.905594,-42.131069
1950501,-5.022714,-5.300292,-0.124431,73.779999,9.170000,17.430000,37.707233,-236.682785,-40.806625
1950521,-8.068886,-5.987056,4.824103,53.480000,19.879999,20.020000,38.824883,-235.801056,-39.816700
1950541,-8.545074,-7.946848,4.974856,57.889999,3.780000,19.460001,36.734829,-233.573532,-38.566715
1950561,-8.624041,-5.805195,5.159110,53.900002,-14.070000,17.780001,36.721481,-237.055954,-41.707291
1950576,-7.954027,-6.240705,3.737722,27.440001,-24.639999,11.060000,36.018486,-231.888062,-40.646301
1950596,-7.193082,-6.496746,3.400322,9.800000,-29.540001,7.280000,37.841770,-233.533401,-41.370735
1950616,-6.295741,-6.759965,3.079673,0.700000,-28.210001,5.530000,36.988354,-233.118149,-41.011032
1950636,-6.144988,-6.491960,2.301978,0.840000,-17.780001,6.790000,37.659351,-233.213257,-39.490341
1950651,-6.401029,-6.599640,3.496039,0.840000,-12.460000,5.460000,37.491089,-232.409317,-41.028934
1950671,-6.403422,-6.046879,3.924369,-9.310000,-11.690000,3.290000,37.789074,-234.584854,-41.416580
1950691,-6.477602,-7.142831,3.883690,-18.480000,-15.540000,-0.560000,38.146210,-234.107666,-40.773643
1950711,-6.164131,-7.233761,4.221090,-7.210000,-25.270000,1.610000,37.709866,-234.041962,-41.460003
1950726,-6.298134,-5.190217,2.756630,-9.100000,-31.920000,6.300000,37.948372,-234.630096,-42.827530
1950746,-7.008828,-5.427115,1.316099,-46.689999,-29.960001,6.860000,37.493622,-234.288483,-42.904114
1950766,-6.738429,-9.093051,0.933234,-67.690002,-23.100000,-2.520000,34.673527,-230.098587,-42.983612
1950786,-6.058843,-8.990156,0.997843,-37.240002,-17.080000,-3.010000,35.319225,-231.798935,-43.008976
1950801,-5.860232,-5.372079,1.550604,-20.719999,-12.530000,4.340000,34.339077,-231.130585,-45.267090
1950821,-5.709479,-5.302684,2.270870,-22.680000,-9.940000,8.120000,34.714619,-230.929306,-45.233929
1950841,-6.195239,-4.788209,2.684843,-33.250000,-9.730000,12.320000,34.983135,-229.911179,-44.915062
1950861,-6.479995,-6.089951,2.562804,-53.130001,-13.020000,14.630000,35.049961,-228.856766,-44.448231
1950876,-6.097130,-8.353642,1.292170,-83.790001,-12.880000,12.670000,37.572075,-230.871124,-43.981083
1950896,-5.527618,-9.490273,0.607799,-80.709999,-2.380000,9.520000,35.605392,-227.096466,-44.420280
1950916,-6.030128,-9.334735,0.423545,-60.200001,10.990000,4.200000,37.987160,-224.541626,-40.759071
1950936,-6.037307,-8.021028,0.842304,-37.450001,18.900000,2.730000,39.521774,-228.529419,-42.036999
1950952,-6.331635,-6.649891,1.296956,-29.820000,21.840000,1.960000,39.214802,-226.076004,-40.758919
1950972,-6.666642,-6.937040,1.615213,-32.340000,19.040001,0.630000,37.405106,-229.227570,-42.006390
1950992,-7.099758,-7.956419,1.931077,-33.040001,16.309999,-0.490000,35.494408,-230.240906,-43.154526
1951012,-7.281620,-8.363214,2.491017,-18.129999,11.900000,-0.070000,35.752289,-226.025208,-41.567833
1951027,-7.863096,-7.688414,3.220854,5.110000,7.000000,0.420000,34.412792,-228.194992,-42.644421
1951047,-8.047350,-4.941355,3.340500,5.950000,-0.210000,3.850000,35.465363,-226.767395,-41.276920
1951067,-7.413229,-6.523067,2.246941,-16.379999,-5.950000,0.140000,37.199135,-228.912354,-40.827648
1951087,-7.161974,-7.817631,1.277813,-24.570000,-6.510000,-4.060000,38.326210,-228.028641,-39.557056
1951102,-6.779109,-7.669271,1.698965,-14.140000,-3.780000,-2.450000,36.524292,-228.258514,-40.146477
1951122,-7.047114,-8.176567,2.084223,-7.630000,-1.540000,-4.620000,39.318417,-226.054184,-37.671658
1951142,-6.956184,-7.918133,1.883219,1.540000,-2.590000,-5.040000,34.506233,-224.214905,-40.958210
1951162,-6.085166,-7.135652,1.435745,9.940000,-4.760000,-3.290000,36.347469,-226.896820,-39.623543
1951177,-5.771694,-6.568533,1.141417,6.230000,-2.240000,-2.030000,36.646770,-227.751938,-40.337875
1951197,-6.479995,-7.106937,1.737251,-3.990000,0.070000,-3.430000,37.284374,-228.133850,-40.970585
1951217,-6.472816,-8.336892,2.268477,0.000000,-2.800000,-5.740000,37.693748,-227.365891,-37.612923
1951237,-6.042093,-6.831753,1.864075,11.760000,-6.650000,-3.430000,38.842186,-228.357376,-37.656181
1951252,-5.683156,-5.501296,0.748980,4.830000,-5.880000,-2.590000,40.207760,-228.061798,-37.753120
1951272,-5.465402,-6.305313,0.607799,-5.390000,-2.870000,-2.240000,40.803833,-227.892868,-37.306614
1951292,-4.998785,-9.291662,2.199083,6.650000,-5.180000,-3.150000,39.399693,-229.236923,-36.834534
1951312,-5.642478,-6.106701,1.873647,34.020000,-0.630000,5.740000,39.982521,-228.030426,-38.306797
1951327,-5.719050,-4.867175,1.430959,28.350000,0.140000,11.760000,42.525227,-228.440521,-36.433922
1951347,-5.618548,-5.348150,1.203633,2.870000,0.980000,16.100000,41.481293,-226.386688,-34.801182
1951367,-6.286170,-8.030600,1.316099,-8.750000,2.170000,16.660000,41.823872,-226.192337,-35.750328
1951387,-5.977484,-10.488116,1.284992,-3.360000,7.420000,12.460000,41.629425,-228.034195,-37.337193
1951402,-5.317042,-8.736507,0.641299,25.760000,16.660000,16.100000,41.957523,-224.083496,-34.816650
1951422,-5.819552,-7.616626,0.737016,44.099998,27.650000,18.690001,41.844028,-224.867950,-35.515690
1951442,-5.867411,-7.429980,1.064844,38.779999,36.680000,17.360001,42.486229,-229.768860,-37.229874
1951462,-6.286170,-7.310334,0.971521,31.010000,44.099998,17.290001,42.798450,-227.421432,-35.974731
1951477,-6.420172,-8.135887,0.894948,37.660000,50.540001,17.850000,41.654724,-226.428940,-35.791138
1951497,-6.140202,-8.837009,1.206026,59.709999,55.369999,18.270000,43.851025,-225.993835,-34.607231
1951517,-5.415151,-8.286641,0.748980,92.680000,61.389999,20.860001,43.018978,-227.453781,-35.561390
1951537,-5.869803,-6.154560,1.687000,108.779999,66.779999,24.920000,42.129631,-225.446182,-35.479919
1951552,-6.286170,-5.699907,1.033736,84.070000,69.930000,21.420000,39.028103,-225.476959,-37.847759
1951572,-6.558961,-7.764987,0.660443,68.320000,71.959999,22.889999,40.162846,-226.191544,-37.140919
1951592,-7.559196,-7.676449,1.524282,76.720001,72.660004,21.490000,42.446453,-227.617752,-35.306248
1951612,-7.729093,-6.712107,1.576926,89.040001,69.860001,22.750000,43.016014,-225.854492,-34.857307
1951627,-8.023421,-5.541975,1.854504,95.269997,65.239998,22.820000,42.323650,-223.884201,-35.064148
1951647,-8.198103,-4.706850,1.785109,85.470001,59.779999,22.120001,40.951614,-225.781052,-35.951946
1951667,-8.456537,-4.821710,2.419230,65.800003,54.180000,23.799999,43.842037,-225.715942,-33.716793
1951687,-8.710185,-5.506082,2.299585,46.900002,49.000000,22.049999,40.101158,-226.965118,-36.296329
1951703,-8.868117,-6.721679,2.139260,41.509998,44.799999,19.389999,42.460152,-227.894653,-36.056355
1951723,-9.014085,-7.767380,1.548212,54.459999,44.029999,16.520000,41.124157,-226.863876,-35.444118
1951743,-8.571397,-7.016006,1.442924,67.690002,43.119999,12.320000,39.580441,-227.118164,-34.497559
1951763,-8.801116,-5.939198,1.375922,79.940002,43.820000,6.090000,40.329895,-223.795898,-34.053833
1951778,-8.545074,-6.125845,1.952613,82.949997,39.900002,2.170000,41.219669,-225.523621,-32.964207
1951798,-8.985370,-4.785816,2.010043,92.610001,29.820000,6.510000,42.829323,-225.255447,-31.946154
1951818,-8.365606,-4.328771,1.706143,90.790001,25.690001,12.950000,39.937256,-222.400864,-33.803913
1951838,-8.006671,-5.271576,1.447709,67.480003,24.150000,7.210000,39.235794,-224.672668,-34.342117
1951853,-8.035385,-4.524989,1.347207,51.170002,24.570000,6.230000,38.869232,-225.151840,-35.265717
1951873,-7.829595,-4.591990,1.526675,34.439999,25.059999,5.460000,40.445457,-225.651276,-32.561092
1951893,-8.001884,-5.503689,1.773145,10.570000,25.270000,2.590000,38.969032,-224.090485,-33.816566
1951913,-8.176567,-5.697514,2.050722,-0.210000,20.790001,2.800000,41.002533,-226.810699,-32.910534
1951928,-8.071279,-5.195004,2.053115,3.220000,16.030001,3.780000,40.257469,-225.891846,-33.163219
1951948,-7.580733,-4.950927,1.347207,5.530000,14.840000,6.230000,39.973186,-223.993210,-33.525681
1951968,-7.980349,-6.001413,1.514711,6.440000,16.450001,5.040000,39.779167,-225.555191,-33.941456
1951988,-8.504395,-5.252433,1.347207,6.650000,15.820000,2.240000,41.054798,-226.039124,-34.035782
1952003,-8.571397,-5.989449,1.507532,10.990000,13.930000,0.560000,39.644306,-224.464447,-33.326641
1952023,-8.537896,-5.742980,1.926291,20.580000,11.830000,-3.430000,38.792641,-222.448914,-32.122532
1952043,-8.403893,-4.903069,1.945434,25.270000,7.770000,-3.990000,38.644859,-224.560730,-33.477200
1952063,-8.200496,-4.831282,1.837753,18.549999,4.620000,-4.130000,41.317711,-226.062546,-32.359467
1952078,-8.257926,-4.848032,1.277813,11.060000,2.660000,-4.060000,38.793423,-225.928375,-34.842117
1952098,-8.250747,-4.632670,0.935627,1.260000,3.780000,-3.220000,40.278057,-224.287598,-31.757492
1952118,-8.207675,-5.218933,0.973914,-4.760000,4.270000,-2.940000,38.975060,-222.769073,-34.002926
1952138,-8.265104,-5.518046,1.043308,-5.110000,4.410000,-3.780000,38.557556,-222.699402,-34.127964
1952153,-8.430215,-5.575476,0.564726,-2.520000,5.180000,-5.320000,40.246841,-222.694244,-31.895393
1952173,-8.624041,-5.405580,0.325435,-2.380000,5.740000,-5.810000,39.152199,-228.370895,-34.576569
1952193,-8.528324,-5.015535,0.835125,-0.700000,4.270000,-5.390000,39.187805,-225.723129,-34.247631
1952213,-8.535503,-5.013143,1.050487,-2.660000,2.730000,-5.250000,37.645409,-224.656998,-33.627754
1952228,-8.688649,-4.924605,0.993057,-4.620000,0.210000,-4.200000,40.183403,-225.068085,-31.895212
1952248,-8.631220,-5.252433,0.882983,-11.060000,-2.730000,-3.710000,40.349163,-223.512054,-32.321419
1952268,-8.413465,-5.104073,0.725051,-18.760000,-4.270000,-3.990000,38.018780,-226.335892,-35.610096
1952288,-8.420644,-4.984427,0.985878,-25.549999,-4.060000,-4.690000,39.757690,-228.199982,-33.849403
1952303,-8.466109,-5.015535,1.155775,-26.670000,-4.060000,-4.480000,38.779720,-225.651474,-34.092010
1952323,-8.499610,-5.142359,1.143810,-27.090000,-4.480000,-4.410000,41.625225,-223.716110,-31.244656
1952343,-8.389536,-5.369686,1.162953,-25.410000,-5.600000,-3.780000,38.902203,-225.144897,-34.283405
1952363,-8.296212,-5.271576,1.158167,-22.750000,-7.140000,-2.590000,41.350254,-226.335480,-32.548256
1952378,-8.396714,-5.419937,1.143810,-21.980000,-7.910000,-2.240000,38.185398,-224.220108,-33.694111
1952398,-8.423037,-5.738194,1.198847,-19.250000,-8.750000,-2.030000,39.090191,-224.904327,-33.681274
1952418,-8.389536,-5.580262,1.072023,-14.350000,-10.150000,-0.840000,39.856731,-223.178375,-33.520641
1952438,-8.511574,-5.872197,1.124667,-7.840000,-10.290000,0.210000,39.573204,-225.239990,-32.762707
1952454,-8.552254,-6.300527,1.040915,1.890000,-9.660000,-0.770000,37.828259,-224.697296,-34.337051
1952474,-8.391929,-6.097130,1.411816,5.250000,-10.920000,-2.800000,37.829899,-227.617004,-34.714443
1952494,-8.657541,-5.726229,1.433352,9.030000,-9.100000,-4.690000,41.054020,-222.559662,-31.316196
1952514,-8.963834,-5.329006,1.361565,8.680000,-8.680000,-7.210000,39.908432,-227.687469,-33.198811
1952529,-8.707792,-5.214147,1.581712,1.260000,-10.710000,-7.980000,41.525864,-224.497589,-31.522705
1952549,-8.784366,-5.630513,2.026793,4.410000,-11.270000,-9.100000,40.365822,-225.388260,-33.775604
1952569,-8.552254,-5.166288,1.438138,6.580000,-11.900000,-10.290000,41.995522,-228.315689,-33.744713
1952589,-8.545074,-5.532403,0.997843,0.630000,-12.180000,-10.710000,40.196674,-225.624863,-33.816414
1952604,-8.829831,-5.783659,1.263456,-6.790000,-11.410000,-12.600000,41.301945,-223.145813,-32.403065
1952624,-7.997099,-5.979877,1.550604,-9.800000,-13.370000,-12.530000,40.258789,-224.571442,-33.489906
1952644,-8.088029,-6.025342,1.907148,-5.600000,-14.070000,-10.920000,42.107803,-224.331650,-31.497189
1952664,-8.554646,-5.843482,1.883219,-1.890000,-16.450001,-9.590000,38.945908,-223.815567,-33.347122
1952679,-8.803509,-5.474974,2.242155,-5.880000,-22.190001,-9.100000,41.963413,-227.762878,-32.384834
1952699,-8.214853,-5.831517,2.876276,-10.290000,-29.400000,-9.800000,39.738964,-223.683960,-33.188915
1952719,-7.937276,-6.563747,2.514946,4.900000,-34.790001,-8.470000,39.094471,-225.183212,-34.712040
1952739,-7.812845,-6.286170,2.648949,33.529999,-40.320000,-3.640000,40.708828,-224.914047,-33.553658
1952754,-7.578340,-5.879375,2.512553,54.950001,-43.189999,0.770000,37.996552,-225.020432,-36.638432
1952774,-7.147616,-5.719050,2.347443,57.750000,-42.770000,2.870000,41.042419,-224.441803,-33.612366
1952794,-7.465873,-6.408208,1.986114,49.910000,-41.790001,1.120000,40.685280,-224.919006,-34.255306
1952814,-7.319906,-6.630748,2.359407,39.200001,-45.150002,-0.210000,40.646286,-226.247345,-35.051258
1952829,-6.843717,-5.963127,1.880826,30.450001,-44.520000,1.400000,40.568832,-224.104172,-34.250271
1952849,-7.073436,-6.353171,2.438373,16.590000,-41.860001,-0.770000,41.447006,-227.714035,-35.456806
1952869,-7.798488,-6.544604,3.086851,10.150000,-38.290001,-4.060000,41.945465,-226.726318,-34.443939
1952889,-6.479995,-5.230897,3.292642,-6.370000,-47.110001,0.770000,40.630405,-227.850616,-36.316658
1952904,-6.965755,-5.159110,2.967206,-19.389999,-55.650002,-0.280000,40.757599,-227.343033,-36.367722
1952924,-6.680999,-5.336185,2.500589,-33.529999,-59.570000,0.140000,39.923908,-225.883286,-36.944485
1952944,-7.619020,-6.750394,3.730544,-39.340000,-65.239998,-1.330000,41.694931,-228.300186,-36.543667
1952964,-6.970541,-7.724308,3.658756,-28.910000,-72.870003,-4.480000,41.642342,-224.831635,-35.367718
1952979,-6.757573,-6.688178,3.199318,-15.960000,-75.529999,-6.580000,43.463879,-228.077255,-36.936565
1952999,-8.255533,-5.061001,3.965049,-22.190001,-79.590004,-4.620000,41.227798,-226.361252,-36.196838
1953019,-8.961441,-5.168682,4.658992,-49.070000,-87.919998,-5.250000,40.822243,-228.168777,-37.916386
1953039,-7.446730,-5.759730,3.211283,-64.959999,-84.629997,-5.810000,41.498409,-227.502213,-38.924244
1953054,-7.123687,-5.690335,4.111016,-70.629997,-88.340004,-5.600000,41.959942,-230.482666,-37.913624
1953074,-7.360585,-5.951162,3.668328,-76.230003,-85.610001,-4.130000,41.458630,-225.351089,-37.000614
1953094,-7.188296,-5.879375,3.314178,-80.010002,-83.720001,-3.990000,42.833950,-229.293655,-36.867592
1953114,-6.905933,-5.917662,3.266320,-78.610001,-81.690002,-1.540000,43.904499,-228.421844,-37.280968
1953129,-7.236154,-7.075829,3.213675,-79.029999,-83.510002,-4.760000,41.742489,-227.529602,-37.809250
1953149,-6.853289,-7.520910,3.192139,-70.419998,-87.430000,-7.280000,39.199783,-227.119522,-39.682121
1953169,-6.341207,-7.231368,3.000707,-61.180000,-89.040001,-7.910000,41.679939,-228.862915,-39.306850
1953189,-6.642713,-7.451516,3.194532,-56.490002,-91.349998,-10.150000,43.703243,-228.105652,-35.961895
1953205,-6.582890,-8.157424,2.770988,-46.130001,-95.410004,-14.420000,41.511219,-228.819641,-38.176567
1953225,-6.042093,-7.798488,2.565197,-33.389999,-98.840004,-17.710001,41.846558,-226.747131,-37.390869
1953245,-5.764515,-7.561590,2.414444,-25.059999,-98.419998,-20.510000,42.904625,-228.798004,-38.602623
1953265,-5.771694,-8.176567,2.524518,-14.000000,-99.190002,-24.500000,42.912724,-230.116425,-37.995274
1953280,-5.099287,-8.468502,2.680057,5.040000,-100.870003,-26.880001,41.658138,-227.267578,-39.164097
1953300,-4.453202,-8.123923,2.687236,25.340000,-100.379997,-28.910000,39.601841,-228.512573,-39.651390
1953320,-4.888711,-7.877453,3.232819,42.840000,-101.290001,-32.900002,42.768871,-228.747787,-36.490025
1953340,-5.173467,-8.174174,3.752080,56.490002,-107.239998,-32.759998,44.509457,-233.050827,-38.946693
1953355,-4.618313,-7.535267,4.166053,65.099998,-113.120003,-29.190001,41.270103,-230.391556,-39.995640
1953375,-4.290484,-5.829124,4.101444,57.470001,-113.959999,-23.590000,42.735363,-233.554626,-39.865234
1953395,-3.974620,-4.898283,3.864547,33.250000,-112.559998,-16.590000,41.211056,-228.524277,-39.804428
1953415,-3.311785,-5.388829,4.017693,1.750000,-109.550003,-9.800000,41.902107,-231.814987,-39.270901
1953430,-2.718343,-6.152167,4.477131,-19.180000,-102.760002,-4.550000,41.488991,-227.504196,-39.204903
1953450,-2.256512,-6.168917,4.393379,-40.110001,-92.120003,-2.870000,41.592522,-231.521591,-41.179420
1953470,-1.519497,-6.116273,3.962656,-64.820000,-83.790001,-3.430000,40.202972,-232.102005,-42.955227
1953490,-0.770516,-5.675978,2.845168,-91.279999,-74.550003,0.840000,43.296398,-230.752777,-41.194740
1953505,-0.636514,-5.312256,1.919112,-124.320000,-60.130001,8.190000,45.687473,-232.715942,-38.474667
1953525,-0.277577,-6.259848,1.280206,-159.039993,-40.389999,14.070000,43.276241,-232.077179,-41.429371
1953545,-0.227326,-7.889418,0.370901,-174.020004,-15.400000,17.010000,42.777431,-229.305557,-38.551556
1953565,-0.445081,-9.636241,0.370901,-170.800003,10.570000,15.820000,40.339581,-231.592453,-42.725632
1953580,-1.060058,-10.509652,1.165346,-158.619995,37.029999,15.260000,41.461941,-230.709717,-41.595375
1953600,-1.548212,-10.880553,1.177311,-133.699997,60.200001,14.630000,42.100407,-230.531876,-39.885891
1953620,-1.797074,-10.416329,1.002628,-113.120003,73.849998,12.950000,43.975498,-232.166321,-39.066696
1953640,-1.555390,-9.794173,1.770752,-111.650002,78.820000,12.810000,43.411964,-232.608185,-39.701992
1953655,-1.512318,-10.052607,1.514711,-106.889999,85.470001,14.350000,43.444931,-232.601242,-38.719681
1953675,-2.656128,-11.196417,1.495568,-85.190002,91.419998,15.610000,43.233822,-232.566895,-38.852364
1953695,-3.177782,-10.808765,1.990900,-53.900002,90.580002,19.600000,42.527756,-230.319687,-38.309097
1953715,-2.651342,-10.160288,3.129924,-36.400002,86.449997,21.629999,42.796272,-229.301590,-37.990234
1953730,-2.651342,-10.887732,2.976778,-19.389999,81.550003,19.740000,41.730427,-230.172409,-37.436535
1953750,-3.297427,-12.108115,3.187354,0.770000,74.059998,17.010000,41.112446,-233.266022,-38.962090
1953770,-3.876511,-12.172724,3.149067,28.350000,68.250000,11.270000,40.398281,-229.700394,-39.026169
1953790,-4.462774,-11.596032,2.591519,50.540001,65.660004,5.390000,41.583080,-232.004379,-37.620106
1953805,-4.778637,-10.949947,2.653735,63.770000,64.400002,2.660000,41.371540,-232.249908,-38.923885
1953825,-4.915033,-11.191631,2.971992,79.800003,68.669998,-0.630000,40.462036,-231.566681,-39.077049
1953845,-5.541975,-10.433080,2.837989,99.260002,73.220001,-7.980000,42.340199,-230.280396,-37.740135
1953865,-5.862625,-9.478309,2.940884,115.500000,75.040001,-10.430000,41.563026,-228.808731,-36.632938
1953880,-5.166288,-8.293819,3.354857,114.940002,75.949997,-11.200000,43.338329,-231.504532,-37.262890
1953900,-5.912876,-8.683864,3.747294,105.629997,72.870003,-12.180000,40.175224,-227.788864,-37.564335
1953920,-5.245255,-9.231839,2.916955,103.180000,67.900002,-13.790000,41.599846,-229.360550,-37.852489
1953940,-4.869568,-8.444572,2.651342,105.279999,65.309998,-12.530000,40.494572,-231.839615,-39.265839
1953956,-4.584812,-7.231368,2.349836,94.500000,63.910000,-10.640000,41.295406,-228.786301,-38.449581
1953976,-4.055979,-7.563982,2.364193,74.480003,61.040001,-10.430000,39.298153,-231.898575,-39.128086
1953996,-3.785581,-7.348621,2.747058,59.779999,56.490002,-7.420000,41.392128,-230.645645,-37.518158
1954016,-3.919584,-8.231604,3.397929,49.980000,48.439999,-5.530000,40.011993,-231.224075,-39.013306
1954031,-3.833439,-7.712343,3.543897,51.590000,38.779999,-1.750000,41.173244,-233.533005,-38.308891
1954051,-3.886083,-4.991606,3.933941,35.420002,29.469999,7.980000,39.459194,-230.343521,-39.694630
1954071,-4.524989,-6.862860,4.804959,-3.850000,17.290001,10.920000,40.749390,-230.544601,-38.196869
1954091,-4.558490,-8.604897,4.541739,-14.280000,-0.070000,13.020000,41.627674,-229.634476,-38.181606
1954106,-4.266555,-8.662328,3.852582,4.130000,-16.170000,15.190001,40.800335,-231.093445,-38.995434
1954126,-3.819081,-7.989920,3.333321,18.969999,-25.969999,18.480000,40.220139,-229.659103,-38.176544
1954146,-4.871961,-7.884632,3.929155,24.290001,-34.299999,24.010000,40.664265,-226.803116,-36.832127
1954166,-5.204575,-7.372550,4.335949,32.410000,-42.490002,31.010000,42.551304,-230.314728,-37.607449
1954181,-4.749923,-6.295741,4.000942,36.959999,-51.520000,41.860001,39.578720,-228.237656,-39.181946
1954201,-4.953320,-6.324456,4.233055,26.950001,-57.049999,51.660000,41.080017,-228.473083,-37.551502
1954221,-5.422330,-6.322063,3.924369,5.670000,-58.799999,62.369999,43.867142,-232.669922,-38.454311
1954241,-5.766909,-6.027736,3.900440,-22.750000,-58.590000,71.750000,41.692749,-230.180344,-38.559177
1954256,-5.616155,-6.793466,4.046408,-36.750000,-58.380001,79.169998,39.887012,-229.370682,-40.786709
1954276,-5.326613,-6.587676,4.364665,-26.389999,-55.160000,91.559998,42.831879,-226.653824,-37.661304
1954296,-5.364900,-5.472581,4.201947,-7.140000,-48.230000,105.139999,42.769222,-232.507126,-40.380703
1954316,-5.206968,-4.685314,3.766437,11.410000,-40.810001,117.809998,42.218605,-229.746429,-39.046524
1954331,-5.458223,-5.343364,3.713793,25.480000,-34.369999,126.489998,42.905052,-228.518127,-37.431526
1954351,-6.087558,-4.206732,3.364429,17.150000,-26.950001,133.070007,41.932575,-229.448059,-40.253391
1954371,-6.762358,-4.857604,3.436216,-8.470000,-20.230000,140.279999,40.695511,-227.915665,-40.534203
1954391,-6.800645,-7.379729,4.223483,16.379999,-14.070000,144.759995,44.957962,-225.953705,-37.411251
1954406,-6.748001,-4.536954,3.340500,84.349998,2.170000,148.470001,45.392555,-227.619690,-37.569298
1954426,-8.126316,-1.146203,3.694650,56.209999,14.280000,155.119995,45.387848,-227.620682,-37.709629
1954446,-8.985370,-3.354857,4.099051,-16.660000,9.800000,152.389999,44.941654,-227.836838,-39.847748
1954466,-9.746315,-5.977484,4.314413,-68.389999,7.350000,149.380005,45.013302,-222.261429,-38.018780
1954481,-9.365842,-4.895890,3.586969,-56.349998,6.090000,150.850006,45.354988,-223.107635,-37.470139
1954501,-9.430450,-3.924369,3.335714,-51.869999,16.170000,157.009995,44.856098,-224.375229,-39.654102
1954521,-10.174645,-6.075593,3.266320,-52.920002,24.010000,155.960007,46.612209,-223.315659,-36.954693
1954541,-9.741529,-2.115331,2.763809,-90.930000,17.990000,154.279999,46.495758,-222.500824,-36.949657
1954556,-10.765694,-2.002864,2.656128,-150.009995,16.450001,151.130005,46.742359,-224.407394,-37.709835
1954576,-11.158131,-5.178253,2.833203,-180.880005,6.440000,142.240005,44.262207,-222.663986,-38.085106
1954596,-10.820730,-6.496746,3.029422,-159.669998,-2.240000,133.770004,46.956535,-221.521027,-37.059429
1954616,-10.504867,-6.448887,3.170603,-112.139999,-6.230000,124.599998,44.340660,-219.246643,-39.162079
1954631,-10.270362,-5.111252,2.948063,-76.510002,-7.210000,117.040001,45.811058,-222.128830,-37.720242
1954651,-10.045428,-4.254591,2.837989,-53.689999,-5.530000,108.639999,47.181774,-221.552399,-36.505756
1954671,-9.789387,-3.948298,2.773381,-30.590000,-2.520000,98.209999,44.484051,-221.375931,-37.998451
1954691,-9.581204,-3.737722,3.070101,-9.450000,1.960000,85.470001,45.815769,-222.127838,-37.579914
1954706,-9.509417,-2.792524,3.175389,5.880000,5.320000,74.760002,45.107525,-221.760818,-39.052151
1954726,-9.643419,-2.584341,2.950456,14.350000,7.630000,64.540001,48.671902,-223.390091,-36.000381
1954746,-9.609919,-2.708772,3.029422,15.330000,7.700000,54.880001,46.470566,-219.586075,-37.273914
1954766,-9.578811,-2.797310,3.094030,13.860000,7.980000,45.990002,45.441540,-221.008713,-37.939766
1954781,-9.468738,-2.837989,3.012671,16.240000,8.750000,38.500000,45.800320,-223.451233,-37.674217
1954801,-9.504631,-2.553233,3.177782,18.059999,8.960000,30.870001,48.886078,-220.503723,-35.349976
1954821,-9.416093,-2.223012,3.094030,15.470000,8.540000,23.379999,47.340183,-222.638184,-36.418919
1954841,-9.289269,-2.395301,3.175389,14.910000,8.190000,15.470000,45.142239,-220.153580,-37.225433
1954856,-9.250982,-2.313942,3.283070,19.040001,8.330000,8.400000,46.849506,-220.704208,-36.773735
1954876,-9.341913,-2.256512,3.376393,24.010000,8.610000,1.680000,45.081875,-219.606720,-36.707531
1954896,-9.310805,-2.258905,3.620470,29.680000,8.050000,-4.480000,47.523464,-222.398590,-35.957115
1954916,-9.239018,-2.242155,3.596541,38.570000,7.420000,-10.080000,42.233414,-219.942780,-38.850807
1954931,-9.456773,-2.098580,3.795152,50.820000,6.440000,-15.050000,43.917988,-219.938614,-36.758572
1954951,-9.408915,-1.734858,3.854975,63.279999,2.520000,-19.809999,45.044628,-219.334778,-36.659073
1954971,-9.172017,-1.426173,3.716186,72.029999,-1.890000,-24.500000,41.612579,-216.917068,-38.450481
1954991,-9.136123,-1.086380,3.493646,76.370003,-5.880000,-27.860001,45.330227,-219.913010,-36.623302
1955006,-9.284483,-0.710694,3.330928,76.160004,-9.240000,-30.380001,45.492031,-222.318207,-36.069450
1955026,-9.260554,-0.282363,3.070101,71.540001,-12.530000,-31.850000,44.180473,-220.241928,-36.253349
1955046,-9.229446,-0.002393,2.873883,64.190002,-14.560000,-31.500000,45.207748,-220.419571,-36.431908
1955066,-9.195946,0.112467,2.699200,58.590000,-15.400000,-29.190001,44.377449,-220.279236,-36.541656
1955082,-9.200731,0.234505,2.517339,57.680000,-15.750000,-25.340000,46.814869,-218.272232,-33.538677
1955102,-9.052371,0.612584,2.395301,54.110001,-15.050000,-21.139999,43.607517,-220.685760,-37.169304
1955122,-8.880082,0.717872,2.230190,43.889999,-12.530000,-16.590000,46.833164,-223.068130,-35.370251
1955142,-9.071514,0.557548,2.270870,32.270000,-7.070000,-11.900000,44.796593,-223.268616,-36.794006
1955157,-9.377807,0.497725,2.337871,23.309999,-0.070000,-6.440000,43.174564,-221.939484,-37.388649
1955177,-9.485488,0.607799,2.567590,16.100000,6.720000,-0.070000,43.118912,-221.391647,-36.730415
1955197,-9.172017,0.555155,2.986349,7.910000,12.670000,7.700000,43.868359,-218.069351,-36.286694
1955217,-9.100229,0.344579,3.405108,-1.820000,17.430000,15.540000,44.470783,-220.819153,-36.077248
1955232,-9.227054,0.126824,3.642006,-12.180000,19.530001,21.350000,43.220020,-219.009872,-35.607952
1955252,-9.291662,-0.222540,3.706615,-21.280001,19.530001,25.620001,43.321022,-221.148087,-35.707294
1955272,-9.320377,-0.550369,3.649185,-25.340000,17.430000,28.490000,41.513969,-221.658829,-37.608143
1955292,-9.356271,-0.784874,3.687471,-25.270000,14.070000,29.330000,44.308983,-218.413956,-36.631100
1955307,-9.526167,-1.005021,3.718579,-21.980000,9.520000,28.490000,42.584953,-220.507141,-36.850418
1955327,-9.590775,-1.189275,3.551076,-14.980000,3.710000,25.129999,44.773472,-222.993713,-36.324562
1955347,-9.430450,-1.256277,3.256748,-7.910000,-0.840000,20.580000,42.800766,-220.540482,-36.577404
1955367,-9.540524,-1.213204,3.027029,-2.310000,-4.550000,14.910000,42.838444,-220.532547,-35.454762
1955382,-9.662563,-1.062451,2.828417,1.260000,-7.420000,8.750000,44.158993,-222.886734,-36.161297
1955402,-9.650599,-0.928448,2.826025,2.590000,-10.010000,2.940000,45.529278,-222.590149,-36.117905
1955422,-9.485488,-0.873411,2.943277,3.010000,-11.900000,-2.030000,44.012962,-223.398254,-36.671551
1955442,-9.530953,-0.849482,3.077280,3.570000,-12.670000,-5.600000,43.443073,-220.921387,-37.069782
1955457,-9.518989,-0.691550,3.043779,3.990000,-13.300000,-7.910000,43.080341,-222.440109,-36.355270
1955477,-9.404129,-0.555155,3.189746,3.710000,-14.420000,-8.890000,42.659878,-220.771149,-35.776230
1955497,-9.193553,-0.485760,3.070101,3.710000,-14.840000,-9.030000,44.493900,-221.094070,-36.546692
1955517,-9.090658,-0.413973,2.974385,5.600000,-13.930000,-8.400000,44.070370,-222.345825,-36.485374
1955532,-9.052371,-0.370901,3.017457,8.960000,-12.250000,-7.140000,43.817303,-222.040527,-36.709934
1955552,-9.002120,-0.454653,3.115566,15.680000,-10.220000,-5.880000,44.654060,-220.579590,-35.615444
1955572,-9.121766,-0.354150,3.369215,25.830000,-7.070000,-4.620000,44.925533,-221.160767,-36.000664
1955592,-9.205518,-0.098109,3.273498,35.000000,-7.840000,-3.150000,45.391457,-219.900131,-34.799011
1955607,-9.231839,0.299114,3.242390,35.560001,-10.080000,-1.890000,44.734585,-219.802048,-35.898712
1955627,-9.181588,0.483367,3.218461,26.670000,-10.990000,-0.980000,44.020313,-220.756424,-37.184597
1955647,-9.296448,0.212969,3.208890,16.030001,-10.710000,-0.280000,45.459492,-222.045273,-35.880661
1955667,-9.473523,0.138789,3.352464,9.030000,-10.920000,0.700000,44.672039,-221.135361,-37.396317
1955682,-9.435237,0.217755,3.347678,2.800000,-11.620000,1.120000,43.452496,-220.919403,-36.789124
1955702,-9.351485,0.246470,3.263927,-5.530000,-11.760000,1.400000,44.206551,-222.116135,-37.426876
1955722,-9.306020,-0.117252,3.388358,-13.440001,-12.040000,1.400000,44.242477,-223.708496,-37.148643
1955742,-9.361056,-0.397223,3.673114,-17.920000,-12.320000,0.910000,46.784859,-219.878464,-35.225067
1955757,-9.195946,-0.480975,3.723365,-19.600000,-13.230000,-0.560000,41.990196,-219.355637,-37.623611
1955777,-8.853760,-0.500118,3.642006,-22.190001,-14.140000,-3.290000,45.530594,-221.269745,-36.444592
1955797,-8.511574,-0.770516,3.608505,-24.010000,-13.790000,-5.740000,44.979874,-223.029037,-36.332207
1955817,-8.387143,-1.040915,3.756866,-20.510000,-12.950000,-8.050000,44.826172,-221.942261,-36.278713
1955833,-8.382357,-1.182097,3.613291,-13.440001,-11.550000,-10.500000,45.612873,-218.891937,-35.883450
1955853,-8.233996,-1.105524,3.491253,-6.440000,-9.660000,-12.670000,44.034870,-220.473587,-35.592510
1955873,-8.090423,-1.150989,3.405108,-2.240000,-7.210000,-14.350000,44.578705,-220.595444,-37.860725
1955893,-8.097601,-1.201240,3.414680,0.420000,-3.500000,-15.120000,45.120762,-222.798370,-37.133377
1955908,-8.286641,-1.179704,3.388358,2.240000,0.770000,-15.330000,45.495880,-222.876968,-38.271309
1955928,-8.511574,-1.268241,3.546290,2.730000,4.970000,-15.050000,46.594234,-222.759872,-35.173820
1955948,-8.513967,-1.390280,3.553468,2.800000,8.330000,-14.560000,46.007259,-218.686691,-35.288963
1955968,-8.289034,-1.588891,3.546290,4.970000,12.110000,-14.000000,45.302834,-219.359207,-35.123089
1955983,-8.277069,-1.787502,3.496039,9.940000,16.940001,-13.020000,44.577927,-217.115967,-35.141140
1956003,-8.585754,-2.041151,3.467324,18.830000,22.049999,-11.830000,46.755711,-220.924957,-34.569260
1956023,-8.753258,-2.146439,3.570219,31.150000,25.480000,-10.850000,46.586559,-221.161575,-34.610073
1956043,-8.736507,-2.184725,3.519968,44.939999,28.000000,-10.290000,43.453384,-219.878860,-38.286907
1956058,-8.786758,-2.156010,3.417073,57.750000,29.889999,-10.290000,44.984150,-223.307922,-37.362972
1956078,-9.026050,-2.105759,3.316571,68.599998,31.360001,-10.780000,47.674206,-221.886078,-35.306534
1956098,-9.327556,-2.098580,3.228033,78.050003,31.710001,-12.110000,47.099930,-223.650330,-35.895802
1956118,-9.540524,-2.022007,3.170603,85.750000,30.730000,-14.560000,47.121407,-221.005539,-35.987854
1956133,-9.739136,-1.840146,3.251962,90.790001,28.980000,-17.639999,45.547688,-222.866058,-36.727680
1956153,-9.968855,-1.718108,3.141888,91.840004,25.620001,-21.210001,46.811367,-221.472809,-35.227493
1956173,-10.138752,-1.557783,3.029422,89.250000,21.139999,-25.270000,45.648369,-220.764160,-36.776314
1956193,-10.301470,-1.509925,2.912169,84.070000,16.170000,-29.610001,45.895405,-222.390854,-36.365402
1956208,-10.423508,-1.519497,2.833203,78.260002,11.410000,-34.020000,48.731487,-220.457489,-33.798698
1956228,-10.368471,-1.564962,2.833203,73.709999,6.720000,-38.430000,45.867577,-222.116928,-36.036282
1956248,-10.224896,-1.490782,2.792524,70.349998,2.100000,-42.560001,48.191502,-220.894379,-33.732346
1956268,-10.028678,-1.466853,2.689629,67.059998,-2.100000,-46.200001,46.475708,-219.305206,-35.962490
1956283,-9.897068,-1.308921,2.476660,63.560001,-5.530000,-48.720001,45.317848,-218.315674,-36.199883
1956303,-9.834852,-1.194061,2.433588,58.450001,-8.190000,-50.610001,47.252102,-217.297379,-34.350098
1956323,-9.925783,-1.423780,2.402480,50.889999,-10.360000,-53.130001,46.690205,-220.658966,-35.362789
1956343,-9.794173,-1.416602,2.354622,43.959999,-12.250000,-54.670002,46.145512,-221.096848,-35.436760
1956358,-9.679314,-1.430959,2.172760,36.470001,-12.810000,-55.650002,44.886215,-218.248978,-36.745914
1956378,-9.794173,-1.789895,2.134474,31.710001,-11.340000,-55.580002,45.972538,-220.293915,-37.115685
1956398,-9.997570,-1.899969,2.139260,31.990000,-9.800000,-54.599998,46.474819,-220.345749,-34.464706
1956418,-10.038249,-1.955006,2.103366,33.950001,-7.700000,-52.849998,46.954010,-219.641861,-35.184254
1956433,-10.136358,-2.043544,2.065080,35.490002,-5.250000,-50.189999,46.930351,-224.166809,-37.107704
1956453,-10.124394,-2.167975,2.022007,38.709999,-2.380000,-46.830002,46.108261,-220.824905,-35.388302
1956473,-9.947319,-2.254119,2.026793,44.939999,0.280000,-43.330002,44.919182,-218.242035,-35.763603
1956493,-9.729565,-2.215833,2.007650,52.430000,3.150000,-40.320000,45.202148,-221.461121,-35.074455
1956508,-9.523774,-2.206261,1.981328,59.920002,6.020000,-37.660000,44.353012,-221.324753,-35.745525
1956528,-9.167231,-2.153617,1.969363,67.129997,8.610000,-35.490002,46.175087,-219.770493,-34.921467
1956548,-8.827438,-2.043544,1.880826,73.709999,11.480000,-33.880001,45.080986,-220.647278,-35.209743
1956568,-8.580969,-2.038758,1.801860,78.820000,14.770000,-32.480000,45.257805,-222.008972,-35.732685
1956583,-8.423037,-2.022007,1.742037,82.809998,18.480000,-30.660000,45.039028,-220.376328,-35.301620
1956603,-8.449359,-1.981328,1.751609,86.029999,22.330000,-27.790001,43.926090,-221.257065,-36.151222
1956623,-8.923154,-1.895183,1.813824,88.269997,25.480000,-24.430000,42.217182,-217.786713,-36.225529
